t accel.x accel.y accel.z gyro.x gyro.y gyro.z mag.x mag.y mag.z
0.01 9.82096904641855 0.0338971174277686 -8.50589725698164 -0.00495179493740705 -0.00582920747143947 0.00155901546190635 -0.00404632341284379 0 0.479982944766623
0.02 9.83643946576669 0.0520084543260599 -8.44330621831398 -0.000811831171060566 -0.0641355742128993 -6.40630691275775e-05 -0.00392861612966709 0 0.479983922621691
0.03 9.81149565952547 -0.0106554406444617 -8.55189184650992 -0.00207861086410755 -0.108009406532799 -0.000508435693251169 -0.00357560322359234 0 0.479986682171065
0.04 9.75726713562208 0.0520003509342859 -8.51511004450415 -0.00700894735964673 -0.158746582200963 -0.00016061914432955 -0.00298756732980374 0 0.479990702453131
0.05 9.73154404475508 0.00525508902286189 -8.5300858498979 0.00108595219597543 -0.206399463353617 -0.00743336590168768 -0.002165007305245 0 0.479995117416176
0.06 9.68786849456005 0.0385394096087898 -8.58865026965466 -0.00193055343052925 -0.253986099962214 -0.0093413285343287 -0.00110861888136445 0 0.479998719752643
0.07 9.63536309851308 0.00700256863731872 -8.58741391219215 -0.00250984918729682 -0.303974628998528 -0.00614684064345593 0.000180705391575097 0 0.479999965984959
0.08 9.64624583443584 -0.0202828686367332 -8.64381204580575 -0.00561720851731483 -0.349875578521026 -0.0142397573894166 0.00170185415036261 0 0.479996983003488
0.09 9.54940460895727 -0.100887576426647 -8.6861134891723 -0.00488583949485461 -0.396572129772604 -0.0084312385673999 0.00345350115928375 0 0.479987576224367
0.1 9.50998827273663 -0.0185263987432974 -8.76205982759896 -0.00721243074885569 -0.445758287237874 -0.0117070529921438 0.00543411066674698 0 0.479969239057319
0.11 9.45308525807055 -0.0293365490581803 -8.81952578383464 -0.00390503922776736 -0.494478007066604 -0.0121441313410616 0.00764192320228593 0 0.479939163863265
0.12 9.30776226175365 -0.0318928604745275 -8.83728146537794 -0.00507176363105685 -0.539222473418558 -0.00664504917953473 0.0100749497271382 0 0.479894254381104
0.13 9.17860297338465 -0.00713565546155218 -8.95783360877974 -0.00425327223782045 -0.586687811746792 -0.0104421974114761 0.0127309656708461 0 0.479831139582549
0.14 9.1332325704369 0.0401353044761967 -9.05839753222815 -0.0017931319838233 -0.635184315478247 -0.00615896194818985 0.0156075040734503 0 0.47974618895474
0.15 9.06618521970803 -0.0237749133637554 -9.12961567730815 -0.0074228275242679 -0.679438385345831 -0.00505198171845888 0.0187018485170415 0 0.479635529190703
0.16 8.95966224870122 0.0404771332400295 -9.29904421781127 -0.0100856296740424 -0.725826642034251 -0.0015449754430015 0.0220110259732789 0 0.479495062264048
0.17 8.69826345177156 -0.0220550959322699 -9.33908692532781 -0.00835809003246531 -0.766209461064576 -0.0021315915275666 0.0255317996890493 0 0.479320484858136
0.18 8.61767162289283 0.0498940189057924 -9.44347993603891 -0.00851295871779747 -0.815644387497464 -0.00849233106052905 0.0292606622378249 0 0.4791073091129
0.19 8.49446504085147 -0.00459951533247947 -9.5071359633219 -0.0108226406639718 -0.855988318849338 -0.00396552053689355 0.0331938288691846 0 0.478850884644691
0.2 8.29401338668885 0.00939696666944415 -9.66689608392589 -0.0106882033384893 -0.894073145962031 -0.00268930767014245 0.0373272312922082 0 0.478546421785868
0.21 8.12415105657549 -0.0124384586138749 -9.82284310788088 -0.00417927078525423 -0.936120280723308 -0.00100613027225919 0.041656512030368 0 0.478189015981614
0.22 7.98141632815613 0.0221272226762294 -9.86649854622247 -0.00824239843442156 -0.974662010922615 -0.00501781802816346 0.0461770194618529 0 0.477773673273884
0.23 7.79042007899095 -0.0663466759220823 -9.98346982347634 -0.00845704721756325 -1.01406558722853 2.23131194477533e-05 0.0508838037698028 0 0.477295336782077
0.24 7.61033912163076 -0.0820393956750011 -10.1173764501244 -0.011929261173473 -1.04846954698568 0.00209642888329442 0.0557716138669838 0 0.476748914090711
0.25 7.41966224721416 0.0626150440813426 -10.2550690910366 -0.0101691836930625 -1.08670903375463 -0.00302217275074519 0.0608348953433328 0 0.47612930545028
0.26 7.21912639810868 -0.033695465935488 -10.4443863102086 -0.00748038754869946 -1.1270986200901 0.000308718320400581 0.0660677897297332 0 0.47543143265904
0.27 7.04277853257308 0.0181418061860498 -10.3831587564619 -0.00852491188404667 -1.16206811940322 -0.00244758013704233 0.0714641351289129 0 0.474650268503323
0.28 6.82243586039781 0.0309760028090594 -10.6745615600793 -0.0107443054980413 -1.19265281845272 0.00408095225614611 0.0770174682920374 0 0.473780866622835
0.29 6.56948957871744 -0.0570432095952036 -10.7376759618373 -0.0107342924060526 -1.22664923444922 0.00648941374632258 0.0827210282773029 0 0.472818391648152
0.3 6.32019148215686 0.071439960882946 -10.9077885781865 -0.0120313626889411 -1.2580795846167 0.00977501231957937 0.08856776176795 0 0.471758149453102
0.31 6.13388546671091 0.10111183779825 -10.914571479379 -0.0138656337860459 -1.29793532843102 0.00485333815304364 0.0945503301141488 0 0.47059561735667
0.32 5.87795096133769 0.0535504425456082 -11.1092190400741 -0.0107619950317901 -1.32574164358813 0.00133125906812954 0.100661118173997 0 0.469326474096615
0.33 5.65153604015209 -0.0258607943519931 -11.1338120501946 -0.0106607567157141 -1.34695765337011 0.0107448257049526 0.106892244994188 0 0.467946629392821
0.34 5.32199601879938 0.0309880221981738 -11.3202965269866 -0.00866188308923791 -1.37458283956192 0.00275618483395404 0.113235576350817 0 0.466452252913949
0.35 5.09624661736928 -0.00926733343158276 -11.4365118260851 -0.0073007157026649 -1.39896730233048 0.000682016652563797 0.119682739158251 0 0.464839802456263
0.36 4.87357107027334 0.030932864255681 -11.5099074515544 -0.0116567446130119 -1.42269385154673 0.00468167853069573 0.126225137734994 0 0.463106051141401
0.37 4.58345127977886 0.0267813611476391 -11.6645312722187 -0.00623421864659008 -1.4514027796956 0.000796085796564904 0.132853971893172 0 0.46124811344027
0.38 4.31050551542372 0.0514197617400181 -11.7195356693616 -0.00909849623273706 -1.47580720425833 0.00768252183244194 0.139560256798475 0 0.459263469832234
0.39 3.9928829323619 -0.0459163180803568 -11.8439412124421 -0.0102258578948004 -1.49570334650039 0.00635979718544398 0.146334844526544 0 0.45714998991293
0.4 3.71321913217199 -0.0614897058916222 -11.8884461731659 -0.00609263840827116 -1.51501961948656 0.00898991384988278 0.153168447221273 0 0.454905953770473
0.41 3.32906957095524 0.0410160862059435 -11.9927903681239 0.000741822485286402 -1.52938873111064 0.00515499951694344 0.160051661740356 0 0.452530071458407
0.42 3.08032204342731 0.0529196155910565 -12.0909998269707 0.00538623802805698 -1.54491554639442 -0.000120482572316388 0.166974995653935 0 0.450021500404557
0.43 2.76150639072341 -0.00483443998934086 -12.2048321692876 0.00121857581111928 -1.55991407065858 -0.00106213368059539 0.173928894443861 0 0.447379860607891
0.44 2.54237608887497 0.0150464820942907 -12.2033991745391 0.00528511801680168 -1.58261193502203 0.00413823861343877 0.180903769733883 0 0.444605247490479
0.45 2.20735202172781 0.0141311681877082 -12.2480970438852 0.00208555746142196 -1.58911857294424 0.0028250207535131 0.187890028365604 0 0.441698242288525
0.46 1.87018793543418 0.0398051116393233 -12.3717236746697 0.00190389538766858 -1.59644992000419 0.00390220087412243 0.194878102121215 0 0.438659919885135
0.47 1.51895799586118 0.00788792984498867 -12.2889354075894 -0.0029245683400682 -1.60729588429028 0.00269633790132502 0.201858477882185 0 0.435491854007727
0.48 1.29306635761276 -0.104399259201648 -12.324621951438 -0.00507345476895076 -1.61394379690769 0.00488448227554215 0.2088217280039 0 0.432196119734392
0.49 0.950043276162128 0.0774201205893596 -12.4451489344615 -0.00137424827493317 -1.61752885450152 -0.00428121976137502 0.215758540679331 0 0.428775293276007
0.5 0.653425449209207 -0.0310999740060327 -12.4393665487054 -0.00733228931507471 -1.627176888618 -0.00448039232369398 0.222659750060204 0 0.42523244902421
0.51 0.353344557721348 0.01932533839548 -12.4101025741632 -0.00450504805032747 -1.62371811872899 -0.00344055266624662 0.229516365902552 0 0.421571153879017
0.52 -0.00462487791145685 -0.0267870650996321 -12.5014776968283 -0.00536960747116913 -1.62730356182064 -0.00755301328784385 0.236319602504613 0 0.417795458893538
0.53 -0.224795325981811 -0.0363913951139511 -12.4989261125533 -0.0036785321331086 -1.63051321403955 -0.00545648102474871 0.24306090670881 0 0.413909888296826
0.54 -0.602297453013781 -0.0248814072450113 -12.4498897277936 -0.006270082670057 -1.62746094513692 -0.00362166609427942 0.249731984746123 0 0.409919425978767
0.55 -1.06789363771928 0.0338511550940466 -12.4216618782256 -0.00593222933178179 -1.62112118031871 -0.000775130843331657 0.256324827710297 0 0.405829499542957
0.56 -1.3190996862908 0.0327655434722677 -12.3575397521028 -0.00434892429321628 -1.61591134441789 -0.00361585391148923 0.262831735461046 0 0.401645962054313
0.57 -1.59171638572658 0.0299346112932939 -12.3320159454324 -0.00631102932062085 -1.60603656298534 -0.00351490482532339 0.269245338769471 0 0.39737507162744
0.58 -1.91720089829578 0.0245517594471778 -12.2810634365337 -0.00814823375054714 -1.59787018907445 -0.00680305203070717 0.275558619535071 0 0.393023469019251
0.59 -2.17795687267928 0.0137894332989503 -12.2955308929734 -0.00676849369754773 -1.58924985534734 -0.00687837038040391 0.28176492892187 0 0.388598153404842
0.6 -2.55964084294992 -0.0549145558191444 -12.1894468183253 -0.00480581837560909 -1.58242572766449 -0.000225932840953956 0.287858003280898 0 0.384106456528831
0.61 -2.71040864637982 0.0429213696690895 -12.1990770092934 -0.00645542584463521 -1.56074687554454 -0.00182618331107013 0.293831977747384 0 0.37955601543522
0.62 -3.08666823687087 0.0327274246020427 -12.0243508205116 -0.000149306333584566 -1.55492695220214 -0.00912636894052032 0.299681397423146 0 0.374954743987205
0.63 -3.33002730437584 -0.043304068907269 -11.9856017471021 -0.00434872668207574 -1.53918415754439 -0.00270650805841494 0.305401226077528 0 0.370310803394045
0.64 -3.63804307447349 0.00600850800828339 -11.9098889537618 -0.00697996112678099 -1.52523779345309 -0.00240144862028487 0.310986852323483 0 0.365632571965261
0.65 -3.98686280982152 -0.0270305352925825 -11.7703392831232 -0.00460174699926816 -1.5042266973393 -0.000230633486702343 0.316434093248758 0 0.360928614312909
0.66 -4.26908208442817 0.0556718405083867 -11.7092916856698 -0.00195258429567989 -1.48468215456532 0.000916084606788498 0.321739195505177 0 0.3562076502206
0.67 -4.60590172533603 -0.0394519700114721 -11.6376313483352 -0.00273337132004774 -1.46098176461662 0.000153804160196397 0.326898833881619 0 0.351478523393446
0.68 -4.82029257888447 0.00858317938749104 -11.5346072182397 0.00124847507806854 -1.4359687776943 -0.00174536314952721 0.331910107407973 0 0.346750170296177
0.69 -5.09532231134698 0.0109416941433325 -11.4227315441652 0.00243075635915466 -1.41280773905037 0.000917088411012865 0.336770533057991 0 0.34203158927771
0.7 -5.36365829519221 0.0467607176943304 -11.3784549760439 0.00347280088207731 -1.39026446253772 -0.00344952917424153 0.341478037138328 0 0.337331810169386
0.71 -5.66675036643089 -0.0415159973899684 -11.22380785387 0.00345439667499936 -1.36472390858077 -0.00340262398420615 0.346030944468838 0 0.332659864531332
0.72 -5.8571542338484 -0.00410686632567647 -11.0788620703374 -0.00379124728912685 -1.32881270471686 -0.00204156979723339 0.350427965475252 0 0.328024756707288
0.73 -6.12786118058487 0.0915525779324532 -10.9966844245012 -0.00608216745915003 -1.30201566375581 -0.00345299423393405 0.354668181329995 0 0.323435435832368
0.74 -6.31340237780907 -0.0116548802477719 -10.8373573674254 -0.00394125876560528 -1.26457896004975 0.000664613985945615 0.358751027289034 0 0.318900768922032
0.75 -6.53000551188312 0.00936651928467382 -10.7491506622213 -0.00675413279429739 -1.23538799691154 -0.00704963700328806 0.36267627438324 0 0.314429515153226
0.76 -6.76710176537025 0.0176774802330339 -10.5647762809348 -0.00736641082906762 -1.20218733255067 -0.00624703749969108 0.366444009631282 0 0.310030301430923
0.77 -7.05959314700435 0.0224750620143547 -10.5647491959983 -0.00545517522451717 -1.16888806988797 -0.00961283325014045 0.370054614947571 0 0.305711599315441
0.78 -7.20956549913772 0.00514952227546057 -10.3810553172849 -0.003952553429603 -1.1258690697425 -0.00680677745638418 0.37350874492349 0 0.301481703368015
0.79 -7.33827883816915 -0.0525847788591363 -10.2890252544163 -0.00456307128281578 -1.09129209036109 -0.00481911733543627 0.376807303662757 0 0.297348710954669
0.8 -7.57464092743435 0.041470159047093 -10.1000767228215 -0.0027544093993721 -1.05902193397736 -0.00330469057135797 0.379951420852828 0 0.293320503531405
0.81 -7.79717370833575 0.0661949544710401 -10.083342527219 -0.0093830513329876 -1.01531399851017 -0.00446649791474427 0.382942427253548 0 0.289404729417405
0.82 -7.96290676954472 0.0382690827164245 -9.94714846984937 -0.00115301889653951 -0.974002784850788 -0.00318777373700204 0.38578182978207 0 0.285608788047564
0.83 -8.05650387877394 -0.0672074065207213 -9.79156640372355 -0.00760760463725473 -0.936989439787571 -0.00468508352602323 0.388471286369496 0 0.281939815681342
0.84 -8.25646242970062 -0.055135206795358 -9.66956218040751 -0.00517163971519925 -0.898386004470737 -0.00105376172295243 0.391012580759859 0 0.278404672531756
0.85 -8.48103899615592 0.00897696244381707 -9.56869129426137 -0.00190609540871594 -0.856970415863523 -0.00482038007496679 0.393407597416235 0 0.275009931266465
0.86 -8.5657203768011 -0.010902779045051 -9.50290971411854 -0.00915153187792684 -0.812055450071371 -0.0055874840216669 0.395658296691954 0 0.271761866822447
0.87 -8.75267504721281 0.0273739182625888 -9.29744475379636 -0.00237824775762469 -0.770066560177067 -0.0035820490116112 0.397766690417401 0 0.268666447466719
0.88 -8.88823255127512 0.0683274224779806 -9.21698336820819 -0.00632843110057472 -0.719896834237594 -0.00378881287365406 0.399734818044757 0 0.265729327027946
0.89 -9.01307263378627 0.026276096380624 -9.09520789236699 -0.00664912835703044 -0.678603869832265 -0.0019005792288491 0.401564723484485 0 0.262955838217806
0.9 -9.0873267718006 0.032753630304859 -9.15130880502552 -0.00463701818446966 -0.631330733980694 -0.0056741654575907 0.40325843275854 0 0.260350986956313
0.91 -9.18123876525236 0.0186315758803055 -8.99553887838824 -0.00770018128630686 -0.589293746936297 -0.00504780615379539 0.40481793258622 0 0.257919447612271
0.92 -9.28929666330014 0.00670816156351399 -8.91401194517669 -0.00624763557360696 -0.541692667514678 -0.00469143860923457 0.40624515000954 0 0.255665559068338
0.93 -9.38503576187625 -0.0388049371460201 -8.8540025401508 -0.0025973353068362 -0.494909861954357 -0.00254797860207468 0.407541933155952 0 0.253593321519928
0.94 -9.4704560352824 -0.0307342944361044 -8.72217220747672 -0.000824335682995786 -0.446117464248767 -0.00562547607273249 0.408710033227326 0 0.251706393918228
0.95 -9.52487724708154 0.0163543654054178 -8.72723997466336 -0.00701172391284599 -0.401528485641881 -0.00542793752426034 0.409751087795439 0 0.250008091969948
0.96 -9.62306700516704 0.00482104319880564 -8.60809111652175 -0.00927657613922832 -0.352485159750626 -0.00546759671111142 0.410666605475735 0 0.248501386609888
0.97 -9.60317889082003 -0.0567533058541914 -8.63564876446549 -0.00796302774808404 -0.298893406090339 -0.00509995658516751 0.411457952042987 0 0.247188902866999
0.98 -9.74402310792223 -0.0153370791728111 -8.55663882925634 0.000151384192201481 -0.255634173296911 -0.00830785697415774 0.412126338044667 0 0.246072919050214
0.99 -9.78911066069515 0.0238774253489883 -8.63440012851562 -0.00308333160147476 -0.210042269536875 -0.00268413876936728 0.412672807960304 0 0.245155366186748
1 -9.76968557873684 -0.0340958248502196 -8.4792941891417 -0.00841202111311575 -0.159676998620929 -0.0015029164537103 0.413098230947949 0 0.244437827652913
1.01 -9.83416449219132 0.0133112700247306 -8.49952733242222 -0.00754894617215064 -0.111446045261539 -0.00277247779827709 0.41340329321198 0 0.243921538945395
1.02 -9.8331064721083 -0.0495822370763058 -8.46660543375306 -0.010977551498155 -0.0630056240997816 -0.00443814786535757 0.413588492019897 0 0.243607387549532
1.03 -9.78544267362162 0.0590920349744455 -8.51483672946629 -0.0127811393762728 -0.009812542912571 -0.0064826691209262 0.413654131389396 0 0.243495912870184
1.04 -9.74877191612331 0.0931752382521089 -8.48229192666208 -0.0107036004911074 0.0413712176311052 -0.0048263340548166 0.413600319460879 0 0.243587306200177
1.05 -9.83522698937634 0.00352208805930579 -8.50624359018609 -0.00722479685627593 0.0876779759803401 -0.00311205173100415 0.413426967564534 0 0.243881410711014
1.06 -9.7358084763518 -0.0368113681477439 -8.50955673215963 -0.00961008386505898 0.139031931883842 -0.00198159687791928 0.413133790985215 0 0.244377721460416
1.07 -9.75821676679606 -0.00739382693402461 -8.52456834718859 -0.00868345689629532 0.188099742668294 0.000287421331972893 0.412720311422487 0 0.245075385421151
1.08 -9.74497688586126 -0.0368526231427446 -8.5608488348995 -0.00895336793547274 0.234315962873883 0.00703662103541306 0.412185861137257 0 0.24597320154549
1.09 -9.72573361137985 0.00406271897467351 -8.68094944954533 -0.00989343694883341 0.28418201075383 0.00483591840968913 0.411529588770475 0 0.247069620889343
1.1 -9.61164532956573 -0.0195106142017296 -8.60605166587422 -0.0105837686163569 0.331566793229326 0.0045418250609033 0.410750466813202 0 0.248362746829584
1.11 -9.60175371279051 -0.0184701806925248 -8.72944735729625 -0.00999423930633709 0.380706216426337 0.00897681288257731 0.409847300701048 0 0.249850335417155
1.12 -9.48392039779107 -0.042630417276993 -8.82308788340672 -0.012360108788423 0.426405187881792 0.00975501336803339 0.408818739499404 0 0.251529795917141
1.13 -9.38914205763917 -0.0238251048856869 -8.78903998093347 -0.00566513895157238 0.474608371212972 0.0061820168710306 0.407663288139057 0 0.25339819159507
1.14 -9.30787465714725 0.0160877447619357 -9.00075829943828 -0.000513403749585248 0.522836365073381 0.00852482822978791 0.406379321154614 0 0.255452240815998
1.15 -9.23812470866655 0.002793425462842 -9.00675273243208 -0.00336383569393055 0.568485147190558 0.00328045895526613 0.404965097870696 0 0.257688318529533
1.16 -9.04294716286045 0.0198591403551253 -9.05294528762983 -0.00809338509310753 0.617578492964718 0.00109945738958323 0.403418778973067 0 0.260102458219602
1.17 -8.9588565673083 -0.00181002066963699 -9.20724204853221 -0.00680294882067071 0.656120008365034 0.00330671823158431 0.401738444393745 0 0.262690354402467
1.18 -8.92075735790725 0.0257250587892142 -9.20876834629995 -0.00836157273450407 0.705595116064093 -0.00122841853236192 0.399922112430704 0 0.265447365760075
1.19 -8.76539084690565 -0.0202376270738378 -9.28437663004033 -0.00780116585255039 0.752373768700483 -0.00149239930382173 0.397967760014117 0 0.268368518998309
1.2 -8.59413504603831 -0.000466151952228782 -9.44666249362664 -0.00814165462392443 0.793998560507149 0.00407523633418062 0.395873344022206 0 0.271448513520845
1.21 -8.44406556589682 0.0574987532719944 -9.52140777018745 -0.00504716426049667 0.827628498610511 -8.03570878220212e-05 0.393636823540725 0 0.27468172700922
1.22 -8.27103183191836 -0.0141613532619823 -9.69459508732229 -0.00884912520182118 0.86838351719928 0.000587310536516502 0.391256182951044 0 0.278062221998205
1.23 -8.27403968273061 0.00141661616401954 -9.775912308195 -0.00983638718662991 0.909291007712215 -0.000614377277455875 0.388729455722745 0 0.281583753532583
1.24 -8.02607029658935 0.0418505013748109 -9.91886986143395 -0.0101967697213572 0.951731608665747 0.00184610074977138 0.386054748777805 0 0.285239777987058
1.25 -7.8324314066127 0.0317255957006242 -9.93474386250883 -0.010933930085524 0.99392812745193 0.00300112514456472 0.383230267284814 0 0.289023463125072
1.26 -7.61219075249916 0.00617962601835037 -10.1198560749105 -0.0151918691334114 1.03228813427432 0.00308836509103678 0.380254339733557 0 0.292927699464896
1.27 -7.40838583579387 0.0106750136109114 -10.2374862056485 -0.00983922192360853 1.0712110386482 0.00323311600786687 0.377125443132661 0 0.29694511301248
1.28 -7.21950852760485 0.0348231768824707 -10.3425048589213 -0.0114340589384099 1.10794712951455 0.002990571050047 0.37384222816619 0 0.301068079410186
1.29 -7.02479734761719 -0.0110261047717568 -10.5135843603891 -0.012741065621904 1.14278445073792 0.00663668461855473 0.370403544139082 0 0.305288739538829
1.3 -6.85908776434412 -0.00522039533805911 -10.51320801312 -0.0111314630757387 1.17414154793249 0.00420633607578922 0.366808463536399 0 0.309599016597383
1.31 -6.54940727750768 -0.00238860025809617 -10.7304673083765 -0.0128464452693313 1.21027997821429 0.00512956788689546 0.363056306017678 0 0.313990634670524
1.32 -6.37847750899995 -0.0399091404693236 -10.9209137457837 -0.00771094088613252 1.24467108466327 0.00621896872153807 0.359146661665318 0 0.318455138778852
1.33 -6.08261552668314 -0.0243938824211236 -10.9414005362807 -0.00992536983571787 1.27541105122074 0.00832785132867985 0.355079413305098 0 0.322983916390441
1.34 -5.90506045700424 0.0150634054359636 -11.0627749111434 -0.00646371745667837 1.30016537335327 0.002664615776043 0.350854757717757 0 0.327568220355416
1.35 -5.63657354587015 0.0770393315001683 -11.2441883811445 -0.00436369049807887 1.32772722311519 0.000957342645268907 0.346473225563116 0 0.332199193207765
1.36 -5.40253179173377 0.0311004809286759 -11.3157970799091 -0.00256354367597147 1.36334044940903 0.00602865451746875 0.341935699842666 0 0.336867892760807
1.37 -5.04926021881213 0.0184980011388338 -11.4284262947581 -0.00821973765397919 1.38755076875812 0.0100926225802641 0.337243432732867 0 0.341565318904821
1.38 -4.88984523240654 -0.0202694103867392 -11.4801048561788 -0.00103063828646244 1.40903153814898 0.0058067945338216 0.332398060629755 0 0.346282441497656
1.39 -4.58189631658679 -0.0557115872532579 -11.5690682645489 -0.000415266332533869 1.43639021032303 0.00609694969653587 0.327401617255703 0 0.351010229221814
1.4 -4.27222385953029 0.0206753330006903 -11.6661862630661 -0.00177503692767661 1.45489884930565 0.00555736022969129 0.322256544691462 0 0.355739679264936
1.41 -3.98712875913519 -0.0843318317265345 -11.8627800053622 -0.00187097665204951 1.47221896125358 0.0072420310474497 0.316965702210772 0 0.360461847664954
1.42 -3.73742397812492 0.032356732299788 -11.9144689243121 -0.00925079101429734 1.49324247685519 0.0100632473055971 0.311532372810762 0 0.365167880146784
1.43 -3.38909661630382 0.00385129039222257 -11.9805791024069 -0.00971079822766973 1.51065599022973 0.008435230104479 0.305960267349069 0 0.369849043264527
1.44 -3.14351845536136 -0.0493535807400926 -12.0726139029273 -0.0151492145854151 1.52368863203601 0.00511182034986002 0.300253526217752 0 0.374496755651909
1.45 -2.79179837147049 -0.0164448272152534 -12.1211373077863 -0.00975963536130486 1.5436332593981 0.00261352811515444 0.294416718504626 0 0.379102619174502
1.46 -2.54915336691762 0.0295003281355021 -12.1340571326282 -0.00981441572925058 1.55598055183456 0.006730235364301 0.288454838614243 0 0.383658449770145
1.47 -2.21754861642436 0.00753614649372306 -12.228944457861 -0.00860171865987929 1.56833267902093 0.00934020965499495 0.282373300343235 0 0.388156307759219
1.48 -1.91732978298641 0.0151178132752396 -12.2968136951997 -0.00836653469855624 1.58045634347576 0.00553480409298451 0.276177928427793 0 0.392588527404116
1.49 -1.61672568364933 -0.0525388218601752 -12.2644594251918 -0.00790362666992213 1.5869476593668 0.00816028515771244 0.269874947604347 0 0.396947745497504
1.5 -1.25977698840247 0.048390319706075 -12.3735152490069 -0.0112894576225975 1.5926598767782 0.000178512375505792 0.263470969247817 0 0.401226928761786
1.51 -0.971611354150174 -0.0393775921313475 -12.3807088935099 -0.00638627028514604 1.59580746092657 0.00545814275884035 0.256972975674717 0 0.405419399847715
1.52 -0.665489106390906 -0.0237635727402521 -12.3832364212083 -0.0053818291983244 1.60500648372914 -0.00200004465354161 0.250388302220593 0 0.409518861728113
1.53 -0.339753179699771 -0.0351598805983478 -12.4393408865214 -0.00106676693511783 1.60681145320822 0.00356383401945175 0.243724617222532 0 0.413519420293328
1.54 -0.016769002417166 0.066329695923289 -12.4340260398403 -0.00866988124060473 1.60953886716826 0.00494079488247404 0.236989900057334 0 0.417415604968016
1.55 0.244858581188212 -0.0385356522786454 -12.4954328261217 -0.00716462996812323 1.60957576174735 0.00109841762179846 0.230192417404248 0 0.421202387184105
1.56 0.623201834203263 0.0154386377185668 -12.4345684306648 -0.00790061833747031 1.61001572435587 -0.00187208162246206 0.223340697917544 0 0.424875196562125
1.57 0.936617024692057 -0.0157892855008003 -12.4179831359363 -0.0155999384377107 1.60425699034356 -0.00673386168072432 0.216443505508492 0 0.428429934672165
1.58 1.23773847003549 -0.0288006906859801 -12.3873664776264 -0.0101009730190957 1.59758849115144 -0.00490226074123942 0.209509811448219 0 0.431862986266399
1.59 1.63143344771045 -0.036410337492288 -12.3320811807229 -0.0135993346358726 1.59020064534657 0.00287696743389504 0.202548765512379 0 0.435171227897033
1.6 1.86600824884986 -0.00942023274173421 -12.2564343546607 -0.0092737860106697 1.58161652406989 0.00258994843031991 0.195569666395346 0 0.438352033856367
1.61 2.17933039362603 0.0130349093141126 -12.249124496445 -0.00552732622189736 1.57121697304429 0.00361309483424645 0.188581931625744 0 0.441403279399126
1.62 2.52892305066375 -0.00678416037961835 -12.2431319838014 -0.00442105190621705 1.56495100609222 0.00553304184599914 0.181595067216439 0 0.444323341230975
1.63 2.85034059948925 -0.0363698754444849 -12.1507375176322 -0.00543950546868073 1.54881198308332 -0.0039692974022097 0.174618637280702 0 0.447111095270774
1.64 3.10850769348007 0.0119978921498066 -12.0869008588817 -0.0103250781534077 1.53094790039766 -0.00183659760581324 0.16766223384216 0 0.449765911717481
1.65 3.43959319331403 -0.0550103223050312 -12.0290509640678 -0.00703817007093028 1.51566142593856 -0.00212197332724118 0.160735447059396 0 0.452287647475162
1.66 3.73766542365655 -0.024434922215791 -11.9477158568701 -0.00977401963602975 1.49540577593202 0.000673218383378508 0.15384783607691 0 0.45467663601119
1.67 3.93067893912852 0.0401694530878263 -11.8502913142851 -0.00444171376051342 1.47469401155104 -0.00261592560712256 0.147008900702683 0 0.456933674743051
1.68 4.28871036666256 -0.00545468268380979 -11.672566282584 -0.0131585493353723 1.45926304919041 -0.00249114254334435 0.140228054099 0 0.459060010067974
1.69 4.48515318941808 0.0183591912563603 -11.6272426081354 -0.0132803149746695 1.4363818657213 -0.00409217298149767 0.133514596657843 0 0.461057320166694
1.7 4.81387199035884 0.0268907405031421 -11.5636376551722 -0.00875438041889429 1.41517336009416 -0.00537452171067644 0.126877691215105 0 0.46292769572788
1.71 5.05242735998443 -0.0229011361078787 -11.4412017071082 -0.00644124808453405 1.38523949699565 -0.00326031733331014 0.120326339739624 0 0.464673618752845
1.72 5.33924041946288 -0.0133004760068589 -11.3237552523994 -0.0082790136021753 1.35909001619023 -0.00189398212554437 0.113869361613648 0 0.466297939611254
1.73 5.61246866125727 -0.0507031408671423 -11.1575725423508 -0.00642029479603215 1.33979305996508 -0.00191771658100238 0.107515373601299 0 0.467803852527289
1.74 5.76706063529125 0.0209833243310172 -11.086231267937 -0.00390679141952221 1.31141280283844 -0.00397007672640482 0.101272771581052 0 0.469194869682408
1.75 6.05878747842163 -0.0474909994206376 -11.0531978471716 -0.00678370465960393 1.27538684184858 -0.00571094348908745 0.0951497140975619 0 0.470474794125203
1.76 6.33423231503397 -0.10143858835063 -10.8021432586602 -0.00793218759216572 1.23727208018047 -0.00415743709327313 0.089154107767596 0 0.471647691681157
1.77 6.60973404484422 0.0421360899178842 -10.7175199838395 -0.00949762697944833 1.20935561614644 -0.00550259852475195 0.0832935945546449 0 0.472717862055335
1.78 6.79074527654746 0.012482741958567 -10.6555960976381 -0.00852531242862288 1.17962894305339 -0.00643148540707129 0.0775755409071711 0 0.473689809319305
1.79 6.89049203484636 0.0114131193112527 -10.5021607363318 -0.00556715565708652 1.14575705190483 -0.00565145945808007 0.072007028736712 0 0.474568211970113
1.8 7.17645855505273 -0.013055258450799 -10.3766503649431 -0.00819104903908494 1.11060291593455 -0.00461244317432174 0.0665948481943818 0 0.475357892743949
1.81 7.38588144590489 -0.0486281505413075 -10.2892223473619 -0.00356163021599498 1.07721370168747 -0.00629125735338272 0.0613454921877762 0 0.476063788360593
1.82 7.55934727069209 0.0224364580468788 -10.1237037545244 -0.00479791751793054 1.0392989545826 -0.00515749324867241 0.0562651525651232 0 0.476690919366861
1.83 7.72945106861424 -0.0440012822137784 -10.0524548060915 -0.00212081557167034 1.00394866729204 -0.00648743006847682 0.0513597178798378 0 0.477244360238341
1.84 7.95430011286149 -0.0269822771905929 -9.94692746872483 -0.00471378836600066 0.965200709946031 -0.00590731368395637 0.046634772636481 0 0.477729209888974
1.85 8.09739792892705 -0.00603695228485909 -9.82396547007249 -0.00831721806797227 0.916477090420733 -0.00775075278808912 0.0420955979085952 0 0.478150562727597
1.86 8.22364017784417 -0.0189083435928255 -9.60792917454823 -0.00797388750740659 0.878325152460132 -0.00792131786058472 0.0377471732099935 0 0.47851348038969
1.87 8.4816476771948 0.0708273711291666 -9.53603840558026 -0.0106051787767621 0.833272425699354 -0.00779909870636208 0.0335941794938505 0 0.478822964261464
1.88 8.56657507370702 -0.0185990835693117 -9.45136981127591 -0.00840472852420207 0.795744173602532 -0.00857388819490006 0.0296410031483642 0 0.47908392890219
1.89 8.64001097252781 -0.0332596776076163 -9.33193808431225 -0.0104429583001912 0.754357194197139 -0.00743637088982356 0.0258917408537925 0 0.479301176459604
1.9 8.88028020391119 -0.0335672783419975 -9.21454304943644 -0.0117995992219322 0.718191656454141 -0.00317883833144199 0.0223502051632829 0 0.479479372162306
1.91 8.95655023488712 0.0120409653535122 -9.1888266298672 -0.00876328654530296 0.66464835475615 -0.000701011872105154 0.0190199306690053 0 0.479623020962658
1.92 9.09542688483285 0.01004422828041 -9.15902782817785 -0.0121803052961293 0.616772500395823 -0.00310690930007858 0.0159041806157808 0 0.479736445393656
1.93 9.23678264196447 0.0489373067720341 -8.94155032211672 -0.0105381721481347 0.572835392114134 0.000223155804160488 0.0130059538262808 0 0.479823764693943
1.94 9.27278968843537 0.0207848185282266 -8.97492495894812 -0.0171224410330362 0.524474410270131 -0.007595440860461 0.0103279918047375 0 0.479888875246427
1.95 9.40806359489898 -0.0627982533570199 -8.87529020645053 -0.0147035597402199 0.482844375119074 -0.00697032895909911 0.00787278589091273 0 0.479935432368059
1.96 9.41911563789946 0.0260971438594619 -8.83294762849891 -0.014866782416088 0.434283879337813 -0.00541773038066747 0.00564258434147148 0 0.479966833481179
1.97 9.59980660444179 -0.00496996029282675 -8.79706864006518 -0.019969751889257 0.381594885720707 -0.00427884396990325 0.00363939922206324 0 0.479986202690559
1.98 9.62467381378952 0.032491354148833 -8.67904170664642 -0.0178438045744823 0.335867021748698 -0.00187958343731595 0.00186501300086242 0 0.47999637678477
1.99 9.603280112345 0.0929465408645343 -8.64551274987629 -0.0167409020192999 0.284719106285092 -0.00604069107369772 0.000320984742406062 0 0.479999892675816
2 9.7159776524599 0.0374640998978002 -8.54580757419672 -0.012587658066992 0.234393676145839 -0.00219991429578793 -0.000991344190664398 0 0.479998976287133
2.01 9.69474118900502 -0.00741200938006808 -8.52155093944726 -0.0128520552119581 0.186483716758572 -0.00642902468464331 -0.00207084501096217 0 0.47999553289686
2.02 9.74260817947895 -0.0734571676283066 -8.53526394253139 -0.0124869963311283 0.133860526025961 -0.000792292818745828 -0.00291659702791261 0 0.479991138940894
2.03 9.77431833923942 -0.0184743073923133 -8.43381119873641 -0.0162613113104025 0.0806235233004095 -0.00540097060989389 -0.0035278838802594 0 0.479987035278379
2.04 9.81383673920484 -0.0462909012863926 -8.52565400067647 -0.0188099256828336 0.0346528223555758 -0.00112459078257367 -0.00390419053151654 0 0.479984121921021
2.05 9.7956577820312 0.0636649285510829 -8.56773908907324 -0.0167080069378192 -0.0149322037415764 0.00186079736380076 -0.00404520106954755 0 0.479982954226821
2.06 9.78256730919923 0.00780640625078596 -8.50775334767919 -0.0192695533784267 -0.0647620767893948 0.00045348103425389 -0.00395079733984673 0 0.479983740558344
2.07 9.79338651384284 0.0473683225409877 -8.55691388252367 -0.0134155268147126 -0.112192287023064 -0.00568742213673738 -0.00362105843098007 0 0.479986341405502
2.08 9.80281387466821 -0.0529813700714258 -8.49111665960085 -0.0118118071233293 -0.159332939054451 -0.00928477676227632 -0.00305626101917299 0 0.479990269972822
2.09 9.77356584866089 0.0311699562618781 -8.55142644326579 -0.0131487563165752 -0.20377950247447 -0.00974707511813859 -0.0022568805673864 0 0.479994694231201
2.1 9.7041211986615 -0.0653084506649389 -8.57960192538214 -0.0128862015230815 -0.251922612290459 -0.00832440764692495 -0.00122359336277998 0 0.479998440434219
2.11 9.66744370815539 -0.0128141199885902 -8.61455801465659 -0.0117514675336829 -0.302665661114969 -0.0053148232708666 4.27206350703567e-05 0 0.479999998098903
2.12 9.55444291076696 0.0263930504704989 -8.57355522521751 -0.00597564196061062 -0.349238722424756 -0.00833962553847071 0.0015409741739656 0 0.479997526450497
2.13 9.56941386768616 0.00639540792864154 -8.67928457431875 -0.00869706683670015 -0.391222099756649 -0.00936973518256092 0.00326986836676168 0 0.479988862330017
2.14 9.41526289845448 -0.0161401844156327 -8.77886068363119 -0.00464883920873111 -0.437532413426413 -0.0130318128628765 0.00522788768757243 0 0.47997152956225
2.15 9.40105140597088 0.00896682882386973 -8.79656530770889 -0.00778893768793171 -0.481376938808639 -0.0131071766195231 0.00741329437758323 0 0.479942749780087
2.16 9.32778086784906 0.0688106507214309 -8.86451737774998 -0.0115441628103803 -0.529162807951251 -0.0114141340179217 0.00982412234160559 0 0.479899454698812
2.17 9.19306550811177 -0.0387779543275693 -9.05430796395626 -0.0111256162640466 -0.577605540283677 -0.0034228456314498 0.0124581706259405 0 0.479838299830948
2.18 9.15090101283384 0.0522260511725822 -9.01250794734784 -0.0103307889031159 -0.624940467829596 -0.00648500893728253 0.0153129965769767 0 0.479755679628531
2.19 9.02384590620349 -0.0143078700153144 -9.14086217120885 -0.00853942194442438 -0.672512551685655 -0.00461145972570139 0.018385908788472 0 0.479647744035164
2.2 8.88290639186463 0.0259303199246237 -9.24785446276958 -0.00753210904673721 -0.721069970008557 -0.00335027322733559 0.0216739599526181 0 0.479510416424891
2.21 8.76380122010291 0.0177894077689671 -9.37337391742545 -0.015871093298054 -0.768177190066974 -0.0025329361517751 0.0251739397354776 0 0.479339412898829
2.22 8.55948800495656 0.012037732057205 -9.43142651883113 -0.0177806859212053 -0.808819948113904 -0.0035057596526555 0.028882367805722 0 0.479130262903456
2.23 8.46261621389799 0.0214736247757373 -9.54706936830065 -0.0205055353502939 -0.84706624690835 -0.00480182424829853 0.0327954871495022 0 0.478878331126631
2.24 8.37626849776808 0.000187017155288799 -9.66265584092471 -0.0149629916820388 -0.897422261963236 -0.0147904759524929 0.036909257804827 0 0.478578840619074
2.25 8.21510037242487 -0.0333830196745506 -9.73043602051099 -0.00734366929918966 -0.93285637164587 -0.00822361615282634 0.0412193511517644 0 0.478226897079856
2.26 7.95857638506723 0.0129384745471618 -9.92447901735647 -0.00907252483139722 -0.976619014645042 -0.00829000319918946 0.0457211449037235 0 0.477817514233931
2.27 7.87263767960128 0.0489520909031772 -9.95272592143414 -0.0106259864614463 -1.02137572352664 -0.0116501284976611 0.0504097189328577 0 0.477345640220072
2.28 7.68147894362285 -0.0251048485464739 -10.1238945869754 -0.0126404625389788 -1.05637973399162 -0.00318617848549094 0.0552798520590442 0 0.476806184897313
2.29 7.48352321359987 -0.0933939542619974 -10.2565565146761 -0.0125952630797798 -1.0929988000128 -0.00381381943553877 0.0603260199445358 0 0.476194047965377
2.3 7.28454019757134 -0.0148809480957145 -10.3695567677882 -0.0119119052543013 -1.12768525916953 -0.0136702677648543 0.0655423942198033 0 0.475504147784155
2.31 7.02100784264607 -0.0171402786457721 -10.4505932043152 -0.00675754692574984 -1.16485881144957 -0.0062992277650287 0.0709228429572506 0 0.474731450766495
2.32 6.78687178405828 0.0709048086550835 -10.5273181472286 -0.00581009059438995 -1.19515949819977 -0.00767552916719152 0.0764609326048254 0 0.473871001207291
2.33 6.5932641612932 -0.0126478498918765 -10.6802982716164 -0.0038762618415378 -1.23031425184683 -0.00480265630625609 0.0821499314816447 0 0.472917951401256
2.34 6.38529549799976 0.00911071974732182 -10.8146751227353 -0.00243802813093174 -1.26620418079247 -0.00508915085089507 0.0879828149247364 0 0.471867591891962
2.35 6.08940758704704 -0.0815060218880612 -10.952106006798 -0.00588889754668375 -1.29973073993896 -0.00373277711769039 0.093952272162844 0 0.47071538168562
2.36 5.8757912056667 -0.00233853378552182 -11.0953906993685 -0.00125091223954443 -1.32994886736917 0.00358238715927821 0.100050714978415 0 0.469456978254992
2.37 5.60309596467347 -0.00311897930846373 -11.1951488693928 -0.000282161759724718 -1.35807640611461 0.00216515817530487 0.10627028820261 0 0.46808826715197
2.38 5.43232043996824 0.0138126249546307 -11.2598917319623 -0.000369791255720351 -1.38398595790429 0.00558483963151735 0.112602882070718 0 0.466605391041904
2.39 5.11386501792574 -0.0218838508976061 -11.5162646085739 -0.00448503551697416 -1.40997617225715 0.00559388566336802 0.119040146446746 0 0.465004777968934
2.4 4.86321592919366 0.00686500969045963 -11.5506158897219 -0.00998412117809699 -1.42849028085888 -0.000616331126930165 0.125573506906664 0 0.463283168659473
2.41 4.61415044305288 0.00314396652044247 -11.612005836801 -0.0136813371579277 -1.45492556600876 -0.000663097102261687 0.132194182649404 0 0.461437642670877
2.42 4.4089643754585 0.00660714070783974 -11.6182597032878 -0.0112363175126113 -1.47665717979981 -0.00153503943739543 0.138893206184506 0 0.459465643194122
2.43 4.02542261667066 -0.030182219600817 -11.789350955561 -0.00989012285794372 -1.49987005212696 -0.00490909695491891 0.145661444724455 0 0.457365000323357
2.44 3.69870393623157 0.0671223206147912 -11.8153773950318 -0.00783906097256123 -1.51443083905798 -0.00300018647393365 0.152489623189203 0 0.455133952611333
2.45 3.51014136134682 0.0355586771498827 -12.0199316660597 -0.00702651943811931 -1.53178098906779 -0.00292023878713848 0.159368348710164 0 0.452771166738117
2.46 3.12263768450007 -0.0285071293218741 -12.0396580215911 -0.0102027366795214 -1.54687275886619 -0.00415084692373251 0.166288136501428 0 0.4502757551311
2.47 2.84702342434071 -0.0164333293761724 -12.1482745766763 -0.0146772912426438 -1.56505792924351 0.00114203987428626 0.173239436947464 0 0.447647291387009
2.48 2.5680914540599 -0.0327885745133736 -12.2175082993956 -0.017574443622403 -1.57981201785703 0.00182808406380267 0.18021266373929 0 0.444885823361444
2.49 2.19218737570758 0.042570728344998 -12.2507779252973 -0.0122473951987326 -1.58851008494672 -0.000598834123370738 0.187198222875359 0 0.441991883808184
2.5 1.88469047723814 0.00221469462493563 -12.2783242293019 -0.0134994262372278 -1.59478060030001 -0.00225955846207974 0.194186542329505 0 0.438966498468973
2.51 1.60805583375209 0.00925562433190827 -12.3207663369758 -0.0168714462496455 -1.61256496561002 -0.00421162314595163 0.201168102176143 0 0.435811191534647
2.52 1.21240334448193 -0.0208118912355641 -12.3410329260914 -0.0126464820569566 -1.61565392238949 0.00358262258085083 0.208133464953559 0 0.432527988419739
2.53 0.988416654971392 -0.0402996053512823 -12.4047758868454 -0.012547851045871 -1.61875807704202 0.00118275424518107 0.215073306038944 0 0.429119415815084
2.54 0.687486690761279 0.00111394000094668 -12.4574680570327 -0.0109472374261808 -1.62229920575987 0.00306806263499521 0.221978443803957 0 0.425588499006227
2.55 0.320519564351183 -0.0175246808115582 -12.4471080669447 -0.0103739670902897 -1.61898794334558 0.00468799227009839 0.228839869317742 0 0.421938756469039
2.56 0.0493853713097801 0.0534745549347514 -12.4635984694298 -0.0113702128191141 -1.61932385771617 -0.00153259697089613 0.23564877536514 0 0.418174191777673
2.57 -0.244050833500844 0.00320579787164628 -12.4458208787624 -0.0065785628865906 -1.62150355882259 0.00350768170541477 0.242396584551334 0 0.414299282883579
2.58 -0.559831534099048 -0.0355274419401902 -12.3846934682607 -0.0133655073342392 -1.61626603605388 0.000736462960463078 0.249074976270457 0 0.410318968847251
2.59 -0.974313945381633 0.00932432357474568 -12.4112532853153 -0.0180151474465471 -1.61577587793922 0.00203851418685008 0.255675912324597 0 0.406238634126525
2.6 -1.226409426901 -0.00190327920463218 -12.3787241461237 -0.0118556348899246 -1.61221436546299 -0.000529787131560334 0.262191660991098 0 0.402064090546183
2.61 -1.47904612828657 -0.0891018218197975 -12.359232211235 -0.0164277417836413 -1.60593606320363 0.00126998506404765 0.26861481934986 0 0.397801557093033
2.62 -1.86913050496031 0.0648052589711507 -12.3563218940708 -0.015733259220589 -1.59737188649853 -0.00107481648673719 0.274938333698363 0 0.393457637698352
2.63 -2.16160669963456 0.00821452075044744 -12.3039277443183 -0.009035197650359 -1.58417722103248 -0.0061737499598266 0.281155517900027 0 0.389039297185217
2.64 -2.56011478096953 0.00854206751185485 -12.2258651190705 -0.0103554560104337 -1.57647272637775 -0.000691104173660666 0.287260069531155 0 0.384553835571765
2.65 -2.79540168459384 -0.0928936811696488 -12.2240035038644 -0.0120793999130472 -1.56060966695221 0.00357626667835977 0.293246083712671 0 0.380008860932454
2.66 -3.09165955968613 -0.0128720339560424 -12.1146500800224 -0.000913725013596376 -1.54364615477251 0.00323188385636273 0.299108064534897 0 0.375412261028043
2.67 -3.41833804915663 -0.053854926776451 -11.9832085701156 -0.00831785137119607 -1.53247285109827 0.00298373888816004 0.304840934006443 0 0.370772173920967
2.68 -3.70035235944168 -0.00583425364944018 -11.8918766740054 -0.00586263036595536 -1.51146796223355 0.00572287082256015 0.310440038481506 0 0.366096957796157
2.69 -4.00500637339072 -0.026140833806724 -11.7959107659105 -0.0105798301738074 -1.49275055302001 0.00209323333738698 0.315901152543208 0 0.361395160208148
2.7 -4.19325921179028 -0.0336954275744662 -11.7178669616737 -0.00588085587201319 -1.47404004024293 0.00772126577333908 0.321220480343725 0 0.356675486973448
2.71 -4.55041426251 -0.043378136876454 -11.6588619058718 -0.00946417934812413 -1.45728382136042 0.00406040023536528 0.326394654424597 0 0.351946770922888
2.72 -4.74749488121201 -0.012531309063533 -11.5936438751901 -0.0124607200655561 -1.43595759869483 0.00391825052304392 0.331420732062379 0 0.347217940722015
2.73 -5.07956708131949 0.0172140900743855 -11.4441140629038 -0.0104368085175734 -1.40685020866577 0.00547755469584662 0.336296189205602 0 0.342497989958758
2.74 -5.36134640920008 0.0343942765741527 -11.333050702579 -0.00999378654696578 -1.38057709111585 -0.00421924528073298 0.341018912088444 0 0.337795946686775
2.75 -5.65225019991888 0.0283787093618033 -11.214561837179 -0.0109958526908207 -1.3546817509989 -0.00222679373541462 0.345587186624517 0 0.333120843600264
2.76 -5.80907716114346 0.0196843037351753 -11.1762577278096 -0.0131589244802768 -1.32613165143407 0.000536983586804222 0.349999685700365 0 0.328481689002059
2.77 -6.11153985763672 -0.0319376909865983 -10.9670502191653 -0.0157011261320324 -1.28963062904164 -0.00013779838794063 0.354255454503088 0 0.32388743871106
2.78 -6.30177601853646 0.0103191961756068 -10.8902503113434 -0.0120025265327771 -1.25965677894438 -0.00469688454791337 0.358353894028856 0 0.319346969038937
2.79 -6.56081214496136 -0.0139752865545994 -10.7386012681709 -0.0148041338132503 -1.22597154408638 -0.0120696574724991 0.362294742929833 0 0.314869050948814
2.8 -6.78420180407258 0.0742075560645968 -10.6797161151841 -0.0140712431088521 -1.19480873177184 -0.00650577386851231 0.36607805786577 0 0.310462325490913
2.81 -7.02743710847908 -0.0449707804375124 -10.4864645037475 -0.0160537455526314 -1.15999108923319 -0.0110573577989849 0.369704192533246 0 0.306135280592323
2.82 -7.18559232520279 0.00989798902004011 -10.4193404212891 -0.0118490037115445 -1.12365304643567 -0.00485409330252914 0.373173775550393 0 0.301896229260097
2.83 -7.39236440120846 0.0412234272493524 -10.3217131841722 -0.0088168708556314 -1.0878962029352 -0.00863127596370497 0.376487687377782 0 0.29775328923948
2.84 -7.51199025085907 0.0239504934415244 -10.1756345786826 -0.0112312308580079 -1.05658108252209 -0.00833749818615989 0.379647036457348 0 0.293714364151897
2.85 -7.77409390224301 0.0216460414285254 -10.0225939911084 -0.00747245022771918 -1.01358404661879 -0.00796109193403494 0.38265313475069 0 0.289787126121003
2.86 -7.96039141877614 0.01153801975148 -9.90157288366706 -0.0088726399572265 -0.970265402919226 -0.00921347533346173 0.385507472856074 0 0.285978999879578
2.87 -8.14078527545394 0.0154330270043149 -9.7613324506296 -0.00904605007188185 -0.926149031468161 -0.00375346216167829 0.388211694879962 0 0.282297148335627
2.88 -8.20507670097947 -0.073188024753473 -9.69700611061882 -0.00533343551343921 -0.894128311859756 -0.00490757903434973 0.390767573234263 0 0.278748459562748
2.89 -8.42454952240013 -0.0750517929812911 -9.60997371821729 -0.00352777091362626 -0.849445827997231 0.000265360983499119 0.393176983524663 0 0.275339535167848
2.9 -8.5628283168428 0.0526360739250827 -9.4787867499234 -0.00471896912007862 -0.806690504124488 -0.00368912671487712 0.395441879688771 0 0.272076679978663
2.91 -8.69356784408699 0.0427013275168528 -9.38321804894313 -0.00441814107712884 -0.769125497217922 -0.00117520111586543 0.397564269535282 0 0.268965892984366
2.92 -8.77729824470897 -0.0379531591463358 -9.17899527322744 -0.00536841082239841 -0.723427359388003 -0.00586347418091085 0.399546190827389 0 0.266012859454808
2.93 -9.02827837615059 -0.00537040090108825 -9.13735758664325 -0.00268134178411143 -0.676773562324622 -0.00381815713554 0.401389688045068 0 0.263222944157767
2.94 -9.0572358671415 -0.0398335567694805 -9.07698048831791 -0.010215132242161 -0.631749234188226 -0.0084230823410286 0.403096789952122 0 0.260601185588813
2.95 -9.15865780891443 0.0159201755264535 -9.02242333831004 -0.007864441984178 -0.587709809739629 -0.00661959679933498 0.404669488084798 0 0.258152291125195
2.96 -9.32899400577827 -0.0102341102126619 -8.8934697300753 -0.00359564764029289 -0.539040450302847 -0.00453563217443004 0.406109716269752 0 0.255880633013329
2.97 -9.38531543983786 0.0630921410413749 -8.90835408824307 -0.00600387395520001 -0.490901334071042 -0.00207023393982017 0.407419331270065 0 0.253790245099084
2.98 -9.42529480807461 -0.0547458262652106 -8.79344205144556 -0.00573056475311928 -0.446352016761533 -0.00598733272185166 0.408600094649129 0 0.25188482021099
2.99 -9.52772807716041 -0.0106535485732375 -8.74254745103153 -0.0109157559393852 -0.400168162839995 -0.00815588400662928 0.409653655933462 0 0.250167708108678
3 -9.60728254334331 -0.000346453861417611 -8.73666549142692 -0.0127463514093309 -0.354439948364436 -0.0095762805977541 0.410581537147065 0 0.248641913912263
3.01 -9.63476972077862 -0.0570767523351594 -8.53438121271175 -0.0119606204921495 -0.314867167770465 -0.0068870831731028 0.411385118781738 0 0.24731009693285
3.02 -9.72728036258533 0.0549899746426614 -8.61692327727334 -0.0100778507728208 -0.265853343638084 -0.00256560655999521 0.412065627259918 0 0.246174569829806
3.03 -9.7086455259064 -0.000733485410856776 -8.60345128484957 -0.00730705360296196 -0.218660877329657 -0.00425445194691351 0.412624123939055 0 0.245237298026886
3.04 -9.73168638909114 -0.00380952322671539 -8.54394023068122 -0.0030755015942991 -0.170972692013868 -0.0027295115466915 0.413061495699325 0 0.244499899326434
3.05 -9.82323388022495 0.0180698916247109 -8.47176227705026 -0.00490017011305843 -0.116502666432592 -0.00223921735360112 0.41337844714961 0 0.243963643668841
3.06 -9.80485760926223 -0.0406606416739732 -8.46648064791825 -0.00520738560060129 -0.0681974800902121 -0.010492230365169 0.413575494479998 0 0.243629452992911
3.07 -9.78158043712702 0.0258024057591646 -8.50984161894875 -0.0077778877197021 -0.0153754490966039 -0.00337596390689719 0.41365296098275 0 0.243497901161803
3.08 -9.80398751756055 0.0151024331558006 -8.50255759943935 -0.0129778965979835 0.0351845603552678 -0.00184176306734116 0.413610974257461 0 0.243569213928595
3.09 -9.86539930834892 -0.0179682676032451 -8.52390180639699 -0.0120413779794345 0.0795164233738316 -0.00130529788554938 0.413449465110152 0 0.243843268925203
3.1 -9.77337996760186 -0.0161146224831655 -8.52926675537548 -0.018290216443459 0.125613076437792 -0.00817520001957972 0.413168168150113 0 0.244319595668215
3.11 -9.71787829393346 -0.0719679399432858 -8.52165259434379 -0.0125581381355274 0.172674682175593 -0.00441729837537331 0.41276662408242 0 0.244997375585132
3.12 -9.69377598963431 -0.00103466013262848 -8.57874865730077 -0.0213043996804931 0.222774505123118 -0.0066942153708055 0.412244183688171 0 0.245875442074383
3.13 -9.71516992034329 0.0798974017286036 -8.60166696970921 -0.0180008532141603 0.275427250591523 -0.00534953752448293 0.411600013478483 0 0.246952280622213
3.14 -9.63894957025309 -0.000152487645723243 -8.70230399029155 -0.0143054066022683 0.328149903336843 -0.00431081853056332 0.410833103002192 0 0.248226029009027
3.15 -9.49818889711524 0.060216696137783 -8.67798681316309 -0.0124502013734541 0.371451403330005 -0.00370737843635697 0.409942273780881 0 0.249694477646906
3.16 -9.4688247012642 -0.0216412690850875 -8.76166761761684 -0.010549529491391 0.423895362232965 -0.0035809249460757 0.408926189838335 0 0.251355070098659
3.17 -9.3591870617446 -0.0237542106538915 -8.85697133725871 -0.0137891813962849 0.471402476553493 -0.00373920746683144 0.40778336978468 0 0.253204903836895
3.18 -9.34017804491069 0.00455782466308583 -8.94904973556896 -0.0134059421797995 0.516913834792828 -0.00668108294433458 0.40651220040837 0 0.255240731308984
3.19 -9.22348811606136 -0.00253601679660237 -8.95739483335256 -0.00618298407550071 0.568902497118236 -0.00880602492751202 0.405110951721748 0 0.257458961380448
3.2 -9.16024913047689 0.00191592076360142 -9.03919340141346 -0.00869277152238904 0.614408712943527 -0.00769439406023373 0.403577793398108 0 0.259855661235067
3.21 -8.9265004099867 -0.00528824773670865 -9.15470829388489 -0.0102708362561692 0.660409825328027 -0.00677324419953416 0.401910812530129 0 0.262426558814788
3.22 -8.85092858024717 -0.0140492412067818 -9.27163964878341 -0.00722315506891402 0.702000397298627 -0.00822713508238628 0.400108032631153 0 0.265167045886227
3.23 -8.80869522464803 -0.0285996054194197 -9.34158295556747 -0.00929572311304969 0.744183423747297 -0.0150656329193484 0.398167433792109 0 0.268072181823117
3.24 -8.67346146215784 0.00925712796018921 -9.43002317779682 -0.0118825595990749 0.784745569013099 -0.0153460125973158 0.39608697389804 0 0.271136698195381
3.25 -8.45239610844921 0.0519825417399485 -9.59275609339039 -0.00880009963491525 0.83063562483086 -0.0181873611295497 0.393864610799157 0 0.274355004255488
3.26 -8.34469533085577 -0.0256975789273705 -9.66861815344935 -0.00548657761674203 0.87180526550484 -0.0165801068801307 0.391498325322284 0 0.277721193411391
3.27 -8.18810277256744 0.0769132328523794 -9.78398226184972 -0.00420208852575208 0.913744157464456 -0.0109547839471308 0.388986144999505 0 0.28122905077254
3.28 -7.97491685246191 -0.0790105903725465 -9.82643519896095 -0.00473243073270027 0.957796245655454 -0.0137956684534372 0.386326168381937 0 0.284872061851161
3.29 -7.82160798939555 0.0722982041237731 -10.0341976749458 -0.00469889500551456 0.994358415018795 -0.0100677623610634 0.383516589797926 0 0.288643422495247
3.3 -7.64090494568488 -0.0743710262466885 -10.1329534428902 -0.00918145131012541 1.03297977336803 -0.00955858118075045 0.380555724406769 0 0.292536050122441
3.31 -7.47387471224781 0.0099322754495096 -10.2135822328229 -0.00668375487093024 1.07105871666759 -0.0134987013067397 0.377442033391396 0 0.296542596315215
3.32 -7.24213899507215 0.0225337455402769 -10.2959631970497 -0.00554107230614488 1.10858747381355 -0.00455014854327896 0.374174149126522 0 0.300655460827578
3.33 -7.0584541929714 -0.0116077019624308 -10.445348158105 -0.00730735381173974 1.14611269205359 0.000244102034270517 0.370750900152722 0 0.304866807041938
3.34 -6.840175940535 -0.00151411901452911 -10.576091943072 -0.000963787172115313 1.18645787406985 -0.00184403470186121 0.367171335781826 0 0.30916857890185
3.35 -6.59125704137864 -0.000580045869802429 -10.6410376807948 -0.00147854385390572 1.21332604809574 -0.00591736059839694 0.363434750155243 0 0.313552519332242
3.36 -6.33768434306629 0.0171381855468637 -10.805214976977 0.00063734380776786 1.24670068402008 -0.00379604784861345 0.359540705574295 0 0.318010190143552
3.37 -6.09084579499982 -0.0390041204759668 -10.8942440451746 -0.00180502320281345 1.27266104284995 -0.00275952941663911 0.355489054920691 0 0.322532993400046
3.38 -6.00069264760566 -0.02095775106071 -11.037691496043 -0.00247803851524578 1.30256640287026 -0.00374731013567932 0.351279962985895 0 0.327112194215728
3.39 -5.66831112997734 0.0204321660403121 -11.2083467812248 0.00251320344016049 1.32830691349144 -0.00257392136026686 0.346913926530544 0 0.331738944923806
3.4 -5.40376698749539 0.0074793694234731 -11.309260188602 0.00223841591637263 1.35955199395661 -0.00051878152805486 0.342391792899313 0 0.336404310547879
3.41 -5.16666187070841 0.00444214606826908 -11.4030493560748 -0.00535126195034317 1.38692772878417 -0.00331416826174787 0.33771477702276 0 0.341099295485153
3.42 -4.90378002643078 -0.0580732341086713 -11.489324039248 -0.00296765566276443 1.41054702078808 -0.00182559411527583 0.332884476645823 0 0.345814871294218
3.43 -4.63516675832176 -0.00318884550857468 -11.5907055644053 0.00231124826925604 1.43551051212494 -0.00231059950902174 0.327902885632733 0 0.350542005462579
3.44 -4.27982439273313 -0.0080449059085327 -11.7314871185133 -0.00126819735138516 1.46135917303817 -0.00564169138433011 0.322772405210151 0 0.355271691012462
3.45 -4.03689149617151 -0.0596639738163329 -11.810096957723 -0.00576036960353806 1.49071776953715 -0.00427931929214211 0.317495853024331 0 0.359994976787666
3.46 -3.75528047981723 0.0298013060797888 -11.8932527855165 -0.00704471457008291 1.50294985538646 -0.00254220000681 0.312076469903894 0 0.364702998249704
3.47 -3.41077605145466 -0.0766597963509566 -11.9308497382962 -0.00881598780964651 1.52883006603256 -0.00131970210142737 0.306517924237296 0 0.369387008598379
3.48 -3.17174669292601 -0.0633517020578337 -12.0326336857137 -0.00593611512961887 1.53862647345313 -0.00583138218005813 0.300824313893122 0 0.374038410020592
3.49 -2.94024979441173 -0.0573153057140742 -12.1273566627363 -0.0024631648490362 1.55203629333286 -0.00285358714147436 0.295000165631741 0 0.378648784861705
3.5 -2.55298783241255 0.0614729092087547 -12.2243951751376 -0.00698188263968967 1.56721833238944 -0.00329992396257587 0.289050431978357 0 0.383209926506511
3.51 -2.24205140822154 -0.0319393915263615 -12.1546044033733 -0.00787186265438226 1.57236475690506 0.00130730954384603 0.282980485549945 0 0.387713869751802
3.52 -1.99331898104448 0.0491973718299189 -12.3320679349381 -0.00728740034823342 1.58760164745469 -0.00184139622513322 0.276796110851498 0 0.392152920450027
3.53 -1.61164725116878 -0.0311350814357469 -12.4022011927818 -0.00634184851761393 1.59965734153978 -0.000364362775810146 0.270503493580393 0 0.396519684203448
3.54 -1.3051657066472 0.0591162646532325 -12.3725336211101 -0.0032194689208529 1.6063244283296 -0.00391217606790824 0.264109207500913 0 0.400807093890864
3.55 -0.962011257131465 -0.0663152092966563 -12.371154894719 -0.00409673754243153 1.62002762598384 0.00220538853422768 0.257620198973977 0 0.40500843581413
3.56 -0.707901551894508 0.0326808616588171 -12.4846427227945 -0.00371576280697659 1.62218542224947 0.00180097694070414 0.251043769249409 0 0.409117374259576
3.57 -0.346082214077878 -0.00124236902355142 -12.4068904850761 -0.000210410770065463 1.61858630509944 0.00379303097385836 0.244387554649417 0 0.413127974279736
3.58 -0.109747795761418 0.0159138103798324 -12.4291186869859 -0.00258959839689935 1.6211118315492 0.00430339160029474 0.237659504791991 0 0.417034722513636
3.59 0.20603785608668 -0.0544133932527266 -12.3770307088011 0.00252653181247528 1.62004730555163 0.00192040916087115 0.230867859021373 0 0.420832545878865
3.6 0.580679177302028 0.0569110550650868 -12.498756892698 -0.000548897313979047 1.62469369219493 0.000673049065048776 0.224021121229364 0 0.424516827985816
3.61 0.821098997180203 0.0217213994410617 -12.4161813339767 0.000784089702978932 1.61779190362506 -0.00396028702486038 0.217128033265692 0 0.428083423143401
3.62 1.23801163020774 0.0486476536719182 -12.4343082854516 -0.00415127396432726 1.6116824693005 -0.00336932116416757 0.210197547147881 0 0.431528667846082
3.63 1.56579568872138 0.000904781471307358 -12.3761221708083 -0.00130761757784444 1.60330167303096 -0.00297084841369292 0.203238796290699 0 0.434849389653829
3.64 1.87033282208296 -0.0266946688876633 -12.2403083814239 -0.00513494358931318 1.59030770338343 -0.00146790918856999 0.196261065982376 0 0.438042913399431
3.65 2.15051186899534 0.0220861147522831 -12.2258988150472 -0.0105356448367099 1.57920593105657 0.00163274038475447 0.189273763339097 0 0.441107064680963
3.66 2.48353018890315 -0.027288114858273 -12.2593639573243 -0.0098230584173005 1.56577870658973 0.00341509049825827 0.182286386970897 0 0.444040170620966
3.67 2.80136025431655 -0.0112870121550801 -12.1451110677117 -0.00951310998882131 1.54928440744658 0.00586277053905435 0.175308496590945 0 0.446841057897574
3.68 3.11376506906163 0.0240178698518815 -12.0407462254335 -0.00919278556114501 1.53571907958276 0.00520705775827021 0.168349682796324 0 0.449509048076206
3.69 3.35254913066934 0.0177517497939684 -12.003031815459 -0.00903756695845609 1.5181964373096 0.00440302897909475 0.16141953724198 0 0.452043950293094
3.7 3.67287011848094 0.00184919849967004 -11.9536274178227 -0.0120704650835621 1.50256698967445 0.000609348325245155 0.154527623420544 0 0.454446051363634
3.71 3.9950840413449 0.0029386682482546 -11.831591975599 -0.00828559542087046 1.48259893022874 -0.00464105110863733 0.147683448249508 0 0.456716103409038
3.72 4.22528642370321 -0.0241908079898377 -11.7460080134195 -0.00859910666903334 1.4660679167409 0.000729784606899028 0.140896434653847 0 0.458855309113705
3.73 4.5185213767005 -0.0275666663241507 -11.6649830367363 -0.00826301175471003 1.43903213133868 -0.000722995570394021 0.134175895316977 0 0.460865304743032
3.74 4.76932326744119 0.0117530913382046 -11.5335022947602 -0.00824064132674304 1.4115259726032 -0.00176712282358475 0.127531007756074 0 0.462748141066737
3.75 5.03109311843988 0.049039884534588 -11.4627373560956 -0.0103526933013997 1.3928295483277 -0.00642361622544729 0.120970790859581 0 0.464506262346168
3.76 5.3212844395081 0.0209852543262842 -11.327311286674 -0.0122722412259345 1.36724660421316 -0.00251266954410624 0.114504083005513 0 0.466142483555261
3.77 5.54877971790559 -0.0583036893130586 -11.2571558346383 -0.0117256043745156 1.33511855280709 0.000572416400962143 0.108139521859089 0 0.467659966013863
3.78 5.85255838375687 0.0337286831625763 -11.081983399586 -0.0104392246049376 1.3082979685929 -0.00163779243739892 0.10188552592779 0 0.469062191618998
3.79 6.03941655142306 0.081256660743684 -11.0498540818715 -0.0140335171383932 1.27952608225041 -0.0036364658328862 0.0957502779312 0 0.470352935864227
3.8 6.26560849734021 -0.0185846480209936 -10.930747229264 -0.0127410405625173 1.25121048035513 -0.00744557088451925 0.0897417100224321 0 0.471536239839792
3.81 6.54289425172499 -0.0148850411498845 -10.6498287059913 -0.0219237261296778 1.21670090759206 -0.0083460563918061 0.0838674908776653 0 0.472616381406617
3.82 6.7794660363897 0.0141638263985735 -10.6401674291828 -0.0153398685396969 1.18600615240875 -0.00986854119172067 0.0781350146506757 0 0.473597845735745
3.83 7.04978861975993 -0.0191509573393014 -10.4750785609022 -0.019962535435583 1.14696208409901 -0.0113189207404181 0.0725513917703783 0 0.474485295401429
3.84 7.22066346938795 0.00500208778261022 -10.3954815835586 -0.0153001305825924 1.11482642841018 -0.00953102435897131 0.0671234415416352 0 0.475283540211111
3.85 7.32850397303383 -0.0244694549438189 -10.277897258146 -0.0137500203599659 1.0889759769973 -0.00365097722032895 0.0618576864929019 0 0.475997506949087
3.86 7.6187240818375 -0.00859057701534794 -10.2547279798998 -0.00675696634086848 1.04532992206764 5.0285760722632e-05 0.0567603483990002 0 0.476632209202886
3.87 7.72745745851406 0.0146469760912234 -10.034129875571 -0.00282934060011647 1.00380294986934 -0.00024444625306307 0.0518373458934569 0 0.477192717432613
3.88 7.84349462177013 0.00700082157241858 -9.92973744736006 -0.011075191958482 0.963280672239912 0.00143381880741102 0.0470942935725437 0 0.477684129433775
3.89 8.08901043402906 0.0792204239978799 -9.76380268184525 -0.0100278412551976 0.923267533894223 -0.000187323995507649 0.0425365024824602 0 0.478111541333777
3.9 8.32142541404361 0.0142704583514269 -9.68406267241702 -0.010456595003455 0.882556397185698 -0.00445006401012614 0.0381689818720413 0 0.478480019251433
3.91 8.47332371562306 0.0088835977613812 -9.62214480695217 -0.0122006309749105 0.837626244506796 -0.00521305231903323 0.0339964420859823 0 0.478794571737707
3.92 8.60708884249956 0.0458006031545293 -9.5092684510693 -0.00710688144714808 0.792540501508472 -0.00376697470391465 0.0300232984678256 0 0.479060123104722
3.93 8.68082827588417 0.0329065923380205 -9.34227461790252 -0.00865706413965121 0.750334203080203 -0.00284076302204608 0.02625367613784 0 0.479281487738938
3.94 8.82339566213479 0.0198944612935983 -9.25620803576095 -0.0103715406686668 0.713886325311808 -0.00448422913846173 0.0226914155083716 0 0.479463345483496
3.95 8.90752199952604 -0.0619725521985063 -9.1941048616757 -0.00674609579761044 0.664138586577707 -0.00262246586992105 0.0193400783982064 0 0.479610218164241
3.96 9.03901063558598 0.0730467117333468 -9.14731972990607 -0.005247573214653 0.622203932075259 -0.00218273134952776 0.016202954608009 0 0.479726447323858
3.97 9.22138402379221 -0.0584229210334544 -8.99517563967206 -0.00157310663505783 0.581213193835483 0.000607606761932626 0.0132830688206747 0 0.479816173219187
3.98 9.32454980716437 0.0491240671548866 -8.91540857024178 -0.000498078127989474 0.530981647666893 0.0017346264574477 0.0105831876931566 0 0.479883315128013
3.99 9.41141658023036 -0.0185359504002405 -8.92823457575689 -0.00759292151605832 0.478210584780766 0.00551005989008889 0.00810582701104008 0 0.479931553003621
4 9.43730196538084 0.0233986876777771 -8.78067239290961 -0.00931968081423352 0.433471986077835 -0.00146281431325159 0.00585325878242318 0 0.479964310508215
4.01 9.51229899977198 -0.00259859607706965 -8.72446374933121 -0.0138163989862287 0.385213800776661 -0.00635894532588576 0.00382751815373255 0 0.479984739449894
4.02 9.57998750952252 -0.00543055182022977 -8.75086479793844 -0.0039933088732576 0.338356972993858 -0.00698398657877117 0.00203041003746412 0 0.479995705642331
4.03 9.64196464869433 0.0307467171507353 -8.68162642437025 -0.00671903583954762 0.293127892278109 -0.00730577073379673 0.000463515349856273 0 0.479999776201532
4.04 9.68918000558355 -0.0149786934745407 -8.5898714122793 -0.0118193762720485 0.238360351750521 -0.00790741846483609 -0.000871803234795866 0 0.479999208290097
4.05 9.71679400411784 -0.00532789800704322 -8.60062112000099 -0.0179028878580722 0.194354149458881 -0.00929485304461978 -0.00197439609714621 0 0.479995939316211
4.06 9.83009580219861 0.0177142616865743 -8.52846042581244 -0.0156699144825971 0.137409278760435 -0.0125200878299502 -0.00284332212721874 0 0.479991578592042
4.07 9.82015145611521 -0.033216786055445 -8.45606240028873 -0.019232965639547 0.0919080440987732 -0.00485244286788096 -0.00347784488403936 0 0.47998740045439
4.08 9.79431427899479 -0.0339884397590331 -8.4975069879064 -0.0180169306154448 0.0432503733457677 -0.00604308746067047 -0.00387742951354806 0 0.479984338849058
4.09 9.80390420083399 -0.0273673490513418 -8.47138285409923 -0.0144163240356668 -0.00388572331436089 -0.00791296806701466 -0.00404174046707783 0 0.479982983379616
4.1 9.82769347021192 0.00641096656204414 -8.47591853730191 -0.0174757161379372 -0.053501811090751 -0.00222556357141193 -0.00397064005109029 0 0.479983576820691
4.11 9.85147586498926 0.0284341422207631 -8.46081987126349 -0.0162870884318751 -0.102017669754966 0.000301882828719036 -0.00366418782776156 0 0.479986014095789
4.12 9.77359684303884 -0.118495633312468 -8.46963641007514 -0.0179608244764076 -0.15031342310232 0.000201072177395482 -0.00312264087454392 0 0.479989842719582
4.13 9.79221482696839 0.0252302499000185 -8.54418533131681 -0.0142547465253081 -0.193654820500984 -0.00172099946032731 -0.00234645489918947 0 0.4799942647047
4.14 9.70472837813856 -0.00694400464515012 -8.61503685860212 -0.0158039902215953 -0.241403416317197 -0.00469597807419865 -0.00133628619526881 0 0.479998139933067
4.15 9.65370593519127 -0.0183304104274765 -8.61711771807157 -0.00990484025996771 -0.290859197832589 -0.00424002252188169 -9.2994411674935e-05 0 0.479999990991708
4.16 9.6040752099026 0.0501418116529059 -8.61174503816469 -0.00677718546438467 -0.340857230871717 -0.00138282866716527 0.0013823539015434 0 0.479998009472634
4.17 9.58153182458402 -0.00864405211755457 -8.69545982511492 -0.0060017068620851 -0.388341197125967 0.000165278531543662 0.00308848101980823 0 0.479990063735688
4.18 9.5019541842757 -0.0962680660870731 -8.82701918692318 -0.00555447095195945 -0.43261646308463 0.00218003751524689 0.00502389310269284 0 0.479973708132115
4.19 9.39634353274482 -0.0282513341519643 -8.81381792719111 -0.00418917512859636 -0.480935390551029 -2.89871034629864e-05 0.00718687465471943 0 0.479946193684977
4.2 9.36084181196897 -0.0329671388036996 -8.89396218627259 -0.00678740027931016 -0.529982605553682 0.00158657455845564 0.00957548246844051 0 0.479904480220279
4.21 9.22946374606944 -0.066600590820506 -9.02513423406586 -0.00617446010045307 -0.579413822348897 1.66043645432564e-05 0.0121875391394524 0 0.479845249939732
4.22 9.15697557041642 0.0161573552923726 -9.05163028637232 -0.00781470368786893 -0.626658417790901 0.000423472299696747 0.0150206262519208 0 0.47976492242243
4.23 9.03917720430514 0.0306678392830187 -9.13423366701791 -0.00334812330061917 -0.673132079526568 -0.00200595043116984 0.0180720773417757 0 0.479659671038282
4.24 8.9415410838707 -0.0125521901933385 -9.24904007804101 -0.00281144686455024 -0.715819530828005 -0.000330394958508407 0.0213389707519756 0 0.479525440750797
4.25 8.74366060043507 0.0587863289860774 -9.38072862326984 -0.000928984954741247 -0.763439379112765 -0.00120933341720629 0.0248181224998383 0 0.479357967280803
4.26 8.59649051765995 -0.0166140548155895 -9.42282026023065 -0.00219116952465055 -0.802289664962637 -0.00616145558636808 0.0285060792848313 0 0.479152797595722
4.27 8.3936858177943 -0.0174638817731394 -9.5636703765282 -0.000815900736257451 -0.850489758221276 -0.00713302260968481 0.0323991117692315 0 0.478905311681302
4.28 8.29016768669086 0.0195599733915704 -9.64661808031715 -0.00137046619045367 -0.892746262945002 -0.00415499525911581 0.0364932082647854 0 0.478610745544376
4.29 8.18189849946379 0.00756735276716096 -9.745887341097 -0.00059229576165166 -0.93580887470954 -0.00686300413194905 0.0407840689615247 0 0.478264215386162
4.3 7.9862828734037 -0.018101725979336 -9.86970829207353 -0.00187345668946946 -0.975363605898935 -0.0104128709084597 0.0452671008439196 0 0.477860742875146
4.31 7.79659144952227 -0.0170901247072859 -10.009315012729 -0.00518914644386023 -1.01290538545868 -0.0154406109723291 0.0499374134275758 0 0.477395281438939
4.32 7.69029099392401 -0.0209743929517455 -10.1182924518809 -0.0110679830081105 -1.05487835092717 -0.0113380551669929 0.0547898154462615 0 0.476862743484291
4.33 7.42714058356192 0.0321279363317421 -10.1697100832236 -0.00409801528865433 -1.09241727418297 -0.00764899466537707 0.0598188126316936 0 0.476258028441867
4.34 7.32409413251896 0.0134325570621629 -10.3243947738656 -0.00392821644657951 -1.12883975351655 -0.00530013282828336 0.0650186067122275 0 0.475576051521942
4.35 7.03805940824804 -0.00970445291179952 -10.5059564512408 -0.00519572793662666 -1.16230758583434 -0.00466332869630749 0.0703830957478978 0 0.474811773056379
4.36 6.81901966781934 -0.00105034061373354 -10.536475212393 -0.00697161454086392 -1.19665970901881 -0.00548507359512022 0.0759058759147662 0 0.473960228290953
4.37 6.63049485166553 0.0121128109265397 -10.710343030817 -0.0023243156992515 -1.23373025303807 -0.00617217481980866 0.0815802448417593 0 0.473016557481404
4.38 6.35419323446789 0.0473893877983848 -10.8688719956892 -0.00383746608963421 -1.2605318531061 -0.00510158856676388 0.0873992065903521 0 0.471976036136769
4.39 6.18976542862814 -0.00383259901869439 -10.993720561454 -0.00863948584366958 -1.28921843295541 -0.00754687062133005 0.09335547835443 0 0.470834105244316
4.4 5.94474240734369 0.00954684830153522 -11.0300442235673 -0.00158233028473708 -1.32474989637628 -0.0098578565658458 0.0994414989429886 0 0.469586401302222
4.41 5.64047939092698 -0.0130333300089226 -11.1515992196271 -0.00262746992064392 -1.35332055386691 -0.00976349139214136 0.105649439092182 0 0.468228785979149
4.42 5.42364294604278 0.0353232528879999 -11.2819848327798 -0.00124928033201887 -1.38127239172039 -0.007584321610536 0.111971213635864 0 0.466757375214267
4.43 5.15688402537204 -0.00696674255234957 -11.3907359693156 -0.00581785453065865 -1.40187534256042 -0.00577562790129364 0.118398495545307 0 0.465168567567294
4.44 4.90876319763746 -0.0176388191164228 -11.5412190081111 -0.00756245859994488 -1.42669963996922 -0.00560542413238801 0.1249227318295 0 0.463459071625807
4.45 4.63159380242722 0.0583986668745181 -11.6771366364757 0.000524207617791181 -1.4515786225432 -0.0053168133455269 0.131535161267156 0 0.461625932276798
4.46 4.40608777271144 -0.0108822315588366 -11.7955234101391 0.00183402236269918 -1.47378401309701 -0.00177552113655004 0.138226833921363 0 0.459666555651024
4.47 4.06807574009241 -0.0675697599367205 -11.8061032664318 -0.00352368886008057 -1.49724630768971 -0.00316398142184459 0.144988632366963 0 0.457578732552506
4.48 3.8827621805656 0.00173194050222673 -11.8026064044145 0.00402882472606042 -1.51716032133516 -0.00789831628334877 0.151811294540187 0 0.455360660191493
4.49 3.47615824517672 0.00489988177006263 -11.9915311703202 -0.00106395477326247 -1.53594145162143 -0.00372123826589623 0.158685438099803 0 0.453010962047359
4.5 3.12335791148119 0.00201990924698737 -12.0493864160377 -0.00229675013784433 -1.55022073304352 -0.00989928574867287 0.165601586169415 0 0.450528705698287
4.51 2.89258164845164 0.0278847730012373 -12.1728349552296 -0.000877826834559246 -1.56505621687292 -0.00740265629879895 0.172550194311971 0 0.44791341846712
4.52 2.58343248850531 -0.0111590704493722 -12.1691291596779 0.000515662218168991 -1.58103145286791 -0.00946548697117319 0.179521678570089 0 0.445165100747327
4.53 2.34422252612592 0.051754647656217 -12.2309715357109 0.00532039801257835 -1.59320763576551 -0.00895077230929933 0.186506444389962 0 0.442284236889598
4.54 1.95207216059239 0.0590407679988281 -12.2675607392146 -0.00258271822490831 -1.60455601651406 -0.0138271454690915 0.193494916232441 0 0.439271803547872
4.55 1.65912379636779 -0.00163085391236774 -12.3616344449648 -0.00211194771508163 -1.61131854480412 -0.00983013362162509 0.2004775676626 0 0.436129275403621
4.56 1.40667689889172 -0.00594626363385351 -12.4010083688235 0.00182987344693196 -1.61639175018913 -0.00607308286609841 0.207444951699455 0 0.432858628208345
4.57 1.06262974820998 -0.00188483032879631 -12.3987458581978 -0.00175490033752113 -1.6259268734417 -0.00748570017263999 0.214387731200102 0 0.429462339106554
4.58 0.644785648432993 0.0312892319483261 -12.4373234045585 -0.00651744251461915 -1.62882542796529 -0.0073474243885885 0.221296709047378 0 0.425943384224712
4.59 0.344867626687737 -0.0314978128374012 -12.3565065937615 -0.0074464980073416 -1.63156579790155 -0.00108414234508042 0.228162857908073 0 0.422305233535201
4.6 0.0920229236397411 -0.0147743302043593 -12.4424015460724 -0.00522008343847943 -1.63040787854935 -0.00541972905189893 0.234977349329211 0 0.418551843028099
4.61 -0.188476562616247 -0.0303704798399343 -12.4348777161168 -0.00653157485867617 -1.63069585265568 -0.00520003039453849 0.241731581943171 0 0.414687644247151
4.62 -0.51703392834876 0.0124093853484882 -12.4087966338138 -0.00991883546655245 -1.62665497391359 -0.0064486567120436 0.248417208558441 0 0.410717531269402
4.63 -0.890288718802035 0.00364328113471463 -12.3844539297058 -0.0115751604229365 -1.61983367442508 -0.00436863878633159 0.255026161921442 0 0.406646845230131
4.64 -1.19293190038445 -0.0345843004822782 -12.4141283600943 -0.00716471725550753 -1.61724019985066 -0.0049386352464988 0.26155067894607 0 0.402481356515864
4.65 -1.48340720888885 -0.00865482418572239 -12.3515522768897 -0.0167383474624412 -1.61033341213662 -0.00330959375426626 0.267983323221199 0 0.398227244767761
4.66 -1.81863168089864 0.0102057012430798 -12.2892897151713 -0.006140632394826 -1.60274187825866 0.00110390110371674 0.274317005622192 0 0.393891076855613
4.67 -2.14762393159082 -0.00422671062245589 -12.2906776062182 -0.00890793278776275 -1.59254068660255 0.000651173669288282 0.280545002870179 0 0.389479782998516
4.68 -2.438029412569 0.00730455022867252 -12.2024637055859 -0.00234314455381591 -1.57948028785887 -0.00465835852587077 0.286660973902353 0 0.385000631222021
4.69 -2.79533287737093 -0.0230348000090465 -12.1858447708155 -0.0050395033885648 -1.56525003734429 -0.00623974415883522 0.292658973937335 0 0.380461200352869
4.7 -3.06933070929178 -0.0278792976822734 -12.078134586978 -0.00489544711150827 -1.5519896531144 -0.00772616413091688 0.298533466141679 0 0.375869351761267
4.71 -3.32141674776222 -0.00836619738534993 -12.0360143963059 -0.00576587181484727 -1.53750226907187 -0.00510912203695667 0.30427933082626 0 0.371233200066917
4.72 -3.64212694044639 0.0374890205047346 -11.9311526895336 -0.00645377969034784 -1.52216881412238 -0.0054378254921387 0.309891872124572 0 0.366561083028638
4.73 -3.92363693435688 -0.00855354625605351 -11.8429344950728 -0.00570545057839047 -1.49604346175221 -0.0060216208923785 0.315366822128223 0 0.361861530838449
4.74 -4.25984413019851 0.0215817696191088 -11.7044748882431 -0.00416321334941028 -1.47645070230579 -0.00489424580361933 0.320700342478148 0 0.357143235039386
4.75 -4.49411647535673 0.0425279810859244 -11.6948739107933 -0.00802954588409237 -1.4578170202652 -0.00218573547757347 0.325889023432681 0 0.352415017282314
4.76 -4.77467703697797 0.0235978309878049 -11.5473970811092 -0.0111833756983636 -1.43902923266198 -0.00410587951594052 0.330929880455564 0 0.347685798130533
4.77 -5.02775553898804 -0.0173725485382414 -11.4681766324995 -0.0099494078717958 -1.41283522198449 -0.00230732033754213 0.335820348387847 0 0.342964566112398
4.78 -5.29371839049896 0.0218548835875854 -11.3142146487835 -0.00370852649963358 -1.38524994428069 0.00350849689126151 0.340558273287202 0 0.338260347211493
4.79 -5.62405112212527 0.0677741272798369 -11.2404533642632 -0.0023453927215502 -1.36003753013399 -0.00285754160833125 0.34514190203638 0 0.33358217497149
4.8 -5.74534242875486 -0.0259867448079483 -11.132881491159 -0.00238604624374412 -1.32771823832242 -0.000831816305948597 0.349569869838846 0 0.328939061378931
4.81 -6.03397657298945 -0.019688481082116 -11.0292900407116 0.000692030704768181 -1.29825668337155 0.000986981421567531 0.353841185734645 0 0.32433996867161
4.82 -6.30544435031779 0.0282356882012409 -10.8693264317745 0.000415768089174374 -1.26781218405119 -0.00172457713300403 0.357955216282134 0 0.319793782204111
4.83 -6.53568650044498 -0.0601685011199337 -10.7069956407867 -0.00518655573753381 -1.23288184474781 -0.00569256474262451 0.361911667562095 0 0.31530928448497
4.84 -6.74540051224947 0.00964710434298305 -10.6059422875959 0.00046057301708418 -1.20493613741619 -0.0049226379735765 0.365710565669728 0 0.310895130482173
4.85 -6.96851234750801 0.039923229759046 -10.5385509926458 0.00585242547212494 -1.17217144823987 -0.00262392177717328 0.369352235866923 0 0.306559824275956
4.86 -7.1821896442352 0.0792194124355763 -10.3882444560264 0.0049648940988015 -1.1363440294337 -0.00101880013619132 0.372837280572263 0 0.302311697119843
4.87 -7.35589402944832 0.027295587623022 -10.2789616203555 -0.00139358825450515 -1.09949811436017 -0.00206605689956747 0.376166556369211 0 0.298158886953465
4.88 -7.52732127043812 0.025039486733738 -10.1940847361136 -0.00560988716144473 -1.06077613192209 -0.00016600329689197 0.379341150214333 0 0.294109319393431
4.89 -7.79983580821257 -0.0165357972227245 -10.0546218758875 -0.000656153876021272 -1.02284829170688 -0.00459389237479238 0.382362355027017 0 0.290170690212147
4.9 -7.94971142922048 -0.020330093234439 -9.91594955199935 0.000528585536341413 -0.983860621170551 -0.00398702286026319 0.385231644840264 0 0.286350449298869
4.91 -8.09628454781839 0.00781802358044748 -9.82128653630093 0.00320240490256541 -0.943154568930639 -0.00477736431026354 0.387950649688808 0 0.282655786082705
4.92 -8.29072495291635 -0.00873336814137178 -9.67215478682387 0.00346794430637739 -0.895720635613876 -0.000455051435546167 0.390521130406227 0 0.279093616383898
4.93 -8.32341459133205 2.59339435631889e-05 -9.55953027435332 0.00353566263622608 -0.860452723503379 0.00508822903464261 0.392944953497084 0 0.275670570647602
4.94 -8.59904475394471 0.0408906173282143 -9.51169240520256 -0.00303856549408352 -0.813670042717004 -0.00429745110345098 0.395224066243451 0 0.2723929835036
4.95 -8.74855143649969 -0.0458532267491652 -9.38839640136536 -0.0014660851651098 -0.776025971703319 -0.00166329828099763 0.397360472197872 0 0.269266884586063
4.96 -8.83608845365274 0.0102904232562057 -9.3077787509925 0.00423047218871452 -0.73422783453055 -0.0041327668422564 0.399356207206741 0 0.266297990539633
4.97 -8.98490921701796 -0.0125153330919436 -9.15125737394339 -0.00231313835663445 -0.68994278958844 -0.00720481499057129 0.401213316099632 0 0.263491698131719
4.98 -9.01818446185592 -0.0131476567914144 -9.08728231217831 0.00120691852862741 -0.641724006014392 -0.00759016968002824 0.402933830171319 0 0.260853078386034
4.99 -9.21918428193379 -0.0112760502379083 -9.01783946988902 -0.00606582848737779 -0.595873734144396 -0.00681570399644583 0.404519745574218 0 0.258386871649025
5 -9.26561872653322 0.0289211892198605 -8.94976031935978 -0.00344484508642102 -0.549392337846266 -0.0106609834191663 0.4059730027299 0 0.256097483498898
5.01 -9.37208849532475 -0.0329258272624726 -8.91815364664063 -0.00385178544737424 -0.508271697333848 -0.0089058167649147 0.407295466859298 0 0.253988981406411
5.02 -9.50372674729342 0.0292247201205718 -8.85762442038935 -0.00881346650156571 -0.453890284757213 -0.0076177179597784 0.408488909722278 0 0.252065092057398
5.03 -9.56506699785065 -0.0060466921661392 -8.72344607982811 -0.010367344568694 -0.409267047753812 -0.00149669589866218 0.409554992648499 0 0.250329199249085
5.04 -9.61648349172066 -0.0282060556331438 -8.7118902185921 -0.0071575276658787 -0.35959687468664 -0.00516464422265193 0.410495250932995 0 0.248784342275508
5.05 -9.68087818467175 -0.0591758378375258 -8.60668114657931 -0.00349475489919228 -0.316611095048925 -0.00397308595561704 0.411311079661705 0 0.247433214721715
5.06 -9.7612091819334 -0.0340634147318939 -8.55962399692656 -0.0050712659824482 -0.264979513573198 -0.00644828381037874 0.412003721024252 0 0.246278163591842
5.07 -9.74783654312353 -0.0299335539102213 -8.60534952408328 0.000382101965468452 -0.218566156510524 -0.00321428959203737 0.412574253163744 0 0.245321188702441
5.08 -9.6925485678468 -0.00121422655061246 -8.50486341363062 -0.0068940901851757 -0.167621166769421 -0.00311577366249984 0.41302358060609 0 0.24456394227957
5.09 -9.817655370405 -0.00596825269158859 -8.53586281330839 -0.00354058097225045 -0.117499488564047 0.000586260160995791 0.413352426304414 0 0.244007728705986
5.1 -9.72875030935124 0.00778576677050114 -8.49561291448712 0.000494071861079077 -0.0698212472729473 0.0049918700156356 0.413561325327494 0 0.243653504373253
5.11 -9.7256455868044 0.00648936362920766 -8.54533140172536 -0.00239969541942406 -0.0182848538351457 0.00588119967635554 0.41365062021476 0 0.243501877602503
5.12 -9.8150577850916 -0.0705263460117288 -8.51239594613958 -0.00598418972859666 0.0310169485365801 -0.00137869628941621 0.413620458014208 0 0.243553108606966
5.13 -9.79368197675995 -0.0553772221802281 -8.52737016544598 0.000721717388832206 0.0837834530463386 0.00589293298677648 0.413470789013544 0 0.243807109479025
5.14 -9.69171698614757 0.0549507622910225 -8.53021269418949 -0.00142918092065678 0.128666642093452 -0.00664307997438818 0.413201367168962 0 0.244263444194379
5.15 -9.73603925379669 -0.0295178203697921 -8.5524830658289 0.00376406773271775 0.178905936095487 0.00262442745150571 0.412811752230067 0 0.244921328635833
5.16 -9.69552032285409 -0.0753060881207639 -8.58804440344052 -0.00292761331307563 0.225574874737547 -0.00414121948491065 0.412301313553565 0 0.245779630649093
5.17 -9.6475049633639 0.0394488265023573 -8.58411550716231 -0.00619555799289454 0.270036333145728 -0.00515126253828447 0.411669235592369 0 0.246836870152728
5.18 -9.67011004936057 0.0306166336945494 -8.71977493643492 -0.00348993368918014 0.317445874401327 -0.000784109108943518 0.41091452504067 0 0.248091219333939
5.19 -9.5380377719726 0.0167287394602531 -8.68359134791855 0.008201564337069 0.368088573748102 -0.00294067983488693 0.410036019609239 0 0.249540502970985
5.2 -9.47425168098042 -0.0275556286019996 -8.77811895693212 0.00241234476456072 0.414696591750842 -0.0028975399009015 0.4090323983987 0 0.251182198931785
5.21 -9.41956015322885 0.0215066467280784 -8.85709235368988 0.00331122941255042 0.462026506392233 -0.00083727836888469 0.407902193831749 0 0.253013438906407
5.22 -9.36437800851818 0.0263202854675561 -8.83912067815077 0.00628544775676187 0.512282600121708 0.00162801848766035 0.406643805098174 0 0.255031009438614
5.23 -9.2336828237289 0.0167188695630324 -8.94213894745874 0.00452981522917539 0.559355901254955 -0.00165403303843233 0.405255513059161 0 0.257231353328392
5.24 -9.16329772156805 -0.0125027010198576 -9.0909807122844 0.00404482754180974 0.604347520268682 -0.000777967837395596 0.403735496549608 0 0.259610571483214
5.25 -9.0421951424206 -0.0565398074031644 -9.17013273180917 0.00144722719703938 0.648061192341349 0.000205339021735538 0.402081850009123 0 0.26216442530069
5.26 -8.84782417347783 0.015223838569985 -9.21677567060368 0.00173199531218839 0.691747303015567 -0.00202584120436095 0.400292602364011 0 0.264888339669092
5.27 -8.76290942540621 0.0910684142034437 -9.34857086396616 0.00399653911074131 0.734247225661797 0.000851820207985624 0.398365737073941 0 0.267777406674901
5.28 -8.70366628645953 -0.0129411898354858 -9.42093420364181 0.00861362341526529 0.774324669392028 0.00176606314213669 0.396299213248124 0 0.270826390107977
5.29 -8.52047281154694 -0.0280251832698814 -9.45147704212826 0.00862448052713963 0.81834094765944 0.00183700624674203 0.394090987726815 0 0.274029730855073
5.3 -8.35418637109148 0.0589910550434542 -9.61772294588981 0.00864235165310124 0.861682740621106 -0.00478024030722232 0.391739038014917 0 0.277381553271207
5.31 -8.21372629718678 0.00545865117943023 -9.73081793878777 0.00701770877302547 0.906136008929338 -0.00624805633345952 0.38924138594538 0 0.280875672615695
5.32 -7.99746609493897 0.00613646531580872 -9.92275787819914 0.00407629332284343 0.945083698717967 -0.00773085318703468 0.386596121941187 0 0.284505603635561
5.33 -7.82337772534106 -0.00483221798190298 -9.94169450409579 0.00219094688434159 0.983931433763246 -0.00820128867942901 0.383801429736067 0 0.288264570373383
5.34 -7.60334741127955 0.0190240633068589 -10.1101523897465 0.00612483572620026 1.02846827252168 -0.00841621685344544 0.380855611405824 0 0.292145517269555
5.35 -7.44328670331654 -0.0278561710511062 -10.2712509093223 0.00628261371419052 1.06841415842545 -0.00979146865223201 0.377757112554451 0 0.296141121620291
5.36 -7.29200620723383 -0.0178485147665218 -10.3373021177923 0.00835947563433971 1.1049941722683 -0.0152329939084227 0.374504547492176 0 0.300243807442686
5.37 -7.11116914571475 0.0209605452870486 -10.4427262138311 0.000521311236449835 1.14119602315081 -0.0129053015475403 0.371096724236462 0 0.304445760786659
5.38 -6.91338391987737 0.0122915554028219 -10.5831659175474 0.0038270955415213 1.17175253364303 -0.013505624463775 0.367532669161802 0 0.308738946520845
5.39 -6.56447705948847 0.0338981446089342 -10.7090690385045 -6.98168606025087e-05 1.20559246953232 -0.0172056105928954 0.363811651120238 0 0.313115126605481
5.4 -6.40818908894728 0.0231366656103089 -10.8288043844916 0.00159442468617802 1.23206239402821 -0.0114869132405785 0.359933204851859 0 0.31756587985026
5.41 -6.15348073837139 -0.0185379858017324 -10.9842088986565 0.00011036762903371 1.26655304465795 -0.0106971697805661 0.355897153503454 0 0.322082623139061
5.42 -5.8687582626317 0.0315454507154544 -11.0949008722598 -0.00321880613782407 1.29971992053444 -0.00850794866546999 0.351703630073917 0 0.326656634086665
5.43 -5.66726993714093 -0.0523890046589974 -11.1775915604161 -0.00517177344456035 1.32758591813622 -0.00444986279521463 0.347353097607243 0 0.331279075075159
5.44 -5.44077842128937 0.0129465139306844 -11.202906909465 3.40001808670603e-05 1.351968701363 -0.00541292511369543 0.342846367958024 0 0.335941018599979
5.45 -5.19198399102151 -0.0148583239897502 -11.4189074714171 0.0023378133864991 1.38280963811861 -0.00818214633181795 0.338184618960255 0 0.340633473837653
5.46 -4.87565754623435 0.0544243006921666 -11.5203873137086 0.00563403025931689 1.40473206700399 -0.00330566703533485 0.33336940983827 0 0.345347414329518
5.47 -4.65065323784455 0.00123738382308211 -11.6150745332035 0.00253386652692519 1.42883304658986 -0.00462860341013076 0.328402694708428 0 0.350073806658315
5.48 -4.38403606776768 0.0554714880841412 -11.7475362289912 0.00185987379596023 1.45371778821941 -0.00067663426390143 0.323286834032136 0 0.354803639977775
5.49 -4.05259251153857 -0.0696872215068984 -11.7909099709323 0.00133035373250701 1.47563552119856 -0.00348248800263489 0.318024603894506 0 0.359527956239487
5.5 -3.8559771185562 0.00671645201616251 -11.8818552935319 0.00119572164195565 1.49296476067762 0.000201362053277063 0.312619202998604 0 0.364237880946666
5.51 -3.47699067726747 -0.023842438805741 -11.9747476335399 -0.000108092622676943 1.51250350476017 -0.00302547997741714 0.307074257282563 0 0.368924654251193
5.52 -3.20628075125954 0.061975896986564 -12.1166783772822 0.0013841943825659 1.53171696232132 -0.00563017958048527 0.301393822085753 0 0.373579662198762
5.53 -2.88054794886874 0.0432707883842681 -12.1415069133331 0.00420946974248995 1.54845155296807 -0.00686870679285394 0.29558238181046 0 0.378194467917308
5.54 -2.57619700058813 0.0209784705576849 -12.2302920094729 -0.00204591879699068 1.55801106822813 -0.0080343466156356 0.289644847046944 0 0.382760842536371
5.55 -2.3030395727167 0.00224438973657446 -12.2027180845483 0.000751661102349016 1.57579531521787 -0.0104450805829457 0.283586549152095 0 0.387270795619817
5.56 -1.99800267316579 0.0484993929266422 -12.2729929099091 0.000119665710335289 1.58621796164173 -0.0201306936177505 0.277413232294857 0 0.391716604891495
5.57 -1.70722444747789 -0.0224027582877898 -12.3271018531034 -0.0110480409910714 1.59025698557162 -0.0194064625361832 0.271131043004866 0 0.396090845033174
5.58 -1.35621832280741 0.10474272647693 -12.391896501305 -0.00631181248286176 1.60042697026667 -0.0141341030688628 0.264746517284088 0 0.400386415336417
5.59 -1.06843081220769 -0.0868596647237062 -12.3801340204596 -0.00456385830984042 1.60516393156569 -0.0143202693473127 0.258266565364226 0 0.404596565995024
5.6 -0.717252229189605 0.0346120566978237 -12.3979029718435 0.00125215680803622 1.60891725883852 -0.0128590671880315 0.251698454215079 0 0.40871492283221
5.61 -0.430905366691312 0.0740671588367916 -12.3531834082711 -0.00281805859132464 1.60895355015257 -0.015181846365215 0.245049787930453 0 0.412735510266854
5.62 -0.115468273996178 0.0261398268110501 -12.4189910672056 -0.000562743000581084 1.61437319837928 -0.0135297772550814 0.23832848613842 0 0.416652772335633
5.63 0.170406861809382 0.00511957484051535 -12.4215616397341 -0.00245684526773038 1.61168077171877 -0.00928641492391906 0.231542760601331 0 0.420461591602746
5.64 0.568362331264072 0.0272342988124415 -12.4603776147668 -0.00296547748991554 1.61228445011073 -0.00909404877962678 0.224701090187793 0 0.424157305805779
5.65 0.839834379579161 -0.0246368148595895 -12.4217219864679 -0.00153658017446619 1.60070072324318 -0.0127883335389807 0.217812194413501 0 0.427735722105104
5.66 1.20773199662729 -0.0125238902573469 -12.4473567906427 0.00342067367761494 1.59779250394884 -0.0157459630076133 0.210885005760267 0 0.431193128824535
5.67 1.52204198089427 -0.0386716330300006 -12.374891161326 -0.000312190442464259 1.59137736425737 -0.0130583520114556 0.203928640992487 0 0.434526304592665
5.68 1.77240680776087 -0.000222418839435353 -12.3616661969454 -0.00206383261991318 1.58156127160731 -0.0137944540841603 0.19695237169764 0 0.43773252481701
5.69 2.08518411932475 -0.00442916689799944 -12.2368057969433 -0.00194304302799053 1.57216461770211 -0.0126134434733989 0.189965594282038 0 0.440809565446432
5.7 2.45973769161398 0.00978420803327869 -12.1363031864482 -0.00226564350605105 1.56331591863326 -0.0104005397695179 0.182977799654906 0 0.443755704001029
5.71 2.77143194168518 -0.0433052286070673 -12.1610802516642 -0.00309117192691179 1.55196048712741 -0.0116527993852091 0.175998542833012 0 0.446569717872424
5.72 3.04363161479771 -0.00203487657966965 -12.0673524380375 -0.00317630328487892 1.53688183081777 -0.012218109116317 0.169037412694459 0 0.449250879920744
5.73 3.29805677787002 0.0513571295995579 -12.0180141950445 0.00118240615798322 1.51566224873412 -0.0137729696705441 0.162104002104063 0 0.451798951417382
5.74 3.63062719302361 0.0179113486142221 -11.9459981089842 -0.00414111665819207 1.50291916028671 -0.0164727354570868 0.155207878624017 0 0.45421417240442
5.75 3.90736128709352 -0.032528683676826 -11.839781110116 -0.00719138961220548 1.47753931184549 -0.0161828145110983 0.148358556012523 0 0.456497249562228
5.76 4.25389230202897 0.00152022986364981 -11.7899376119691 -0.00581563242446912 1.46098134667281 -0.0143830332942359 0.141565466699903 0 0.458649341695852
5.77 4.5386877245079 -0.0482120695582346 -11.7117127631392 -0.00329017056913793 1.44263389276657 -0.0185635774952411 0.134837935416663 0 0.460672042968283
5.78 4.79098727980904 0.0194444308956438 -11.5441764542929 -0.00220034293354861 1.41976324549151 -0.0162687470267774 0.128185154131251 0 0.462567364024255
5.79 5.05255717620147 -0.0825752090309733 -11.4878609581809 -0.00250523466033687 1.398663067539 -0.0160795069324184 0.121616158437225 0 0.464337711161792
5.8 5.3486054358742 0.0418897014477403 -11.3453212173072 0.0026574991208409 1.37247091300811 -0.0146308424619046 0.115139805510336 0 0.46598586372018
5.81 5.52053097075683 -0.0507981144969172 -11.2165422064772 0.00157600157233107 1.3441195013712 -0.0115698909669216 0.108764753736113 0 0.467514949862272
5.82 5.85102758063244 -0.0307384113845507 -11.1467193246446 0.00450480604057328 1.31255647802855 -0.0186660858924513 0.102499444088052 0 0.468928420936117
5.83 6.0264975774188 -0.0750304749322102 -11.0259396015174 -0.00201008896228264 1.28433950168139 -0.0200025002751185 0.0963520833158427 0 0.470230024605721
5.84 6.24654612811443 -0.017864862374207 -10.9513264768087 -0.00109361151225027 1.25731818440889 -0.0155234717323267 0.0903306289824341 0 0.471423776943461
5.85 6.51348084833176 0.0276921190935232 -10.7109125224552 -0.00419989281563081 1.22019898817891 -0.0159076451693605 0.0844427763684782 0 0.472513933677287
5.86 6.7273091214769 0.0346439468185053 -10.6453687001315 -0.00228794479883069 1.18965900593907 -0.0163963456949804 0.078695947242921 0 0.473504960784509
5.87 6.95041499112699 -0.000399263847618421 -10.4789340063938 -0.00823086828914794 1.15900829204618 -0.0142588537874285 0.0730972804795981 0 0.474401504620808
5.88 7.16553564305166 0.02602537201438 -10.4096635983358 -0.00560750574410303 1.12109205032347 -0.0193929345683589 0.067653624481789 0 0.475208361768264
5.89 7.40048047649032 -0.00354865589142778 -10.3068224698818 -0.00348048543950817 1.08619410734466 -0.0142225347473344 0.0623715313599063 0 0.475930448779882
5.9 7.57037400499898 -0.0177721244253746 -10.1538501852255 -0.00393088300523067 1.05103646987012 -0.0118899613669273 0.0572572527920485 0 0.476572771990498
5.91 7.82475291426119 -0.037250571246113 -10.054640134 -0.00510818734533688 1.01530070663498 -0.0144879698554568 0.0523167374831617 0 0.477140397555183
5.92 7.99903142554638 -0.0643546085046387 -9.92699305657728 0.0015807780853654 0.98020095849634 -0.0154460267416802 0.0475556301260985 0 0.477638421866698
5.93 8.05781672224547 -0.0173049256609521 -9.88026502424145 -0.00205630767986184 0.940478337180029 -0.00996944220988183 0.0429792717569914 0 0.478071942493218
5.94 8.26795682479228 0.026844613192882 -9.67829345873716 -0.00657674773985484 0.890481815342437 -0.0104167022274567 0.038592701388154 0 0.478446029766749
5.95 8.41242374019105 -0.0369454668637974 -9.55524739551974 -0.00613691719233312 0.854210929960371 -0.0121902297336393 0.0344006587941559 0 0.478765699141582
5.96 8.47808851028777 -0.0756770028518495 -9.42113576851415 -0.00408496203478068 0.812075360292732 -0.0111476451764578 0.0304075883208152 0 0.479035884430918
5.97 8.7037854002874 -0.00464523015374099 -9.3463054025285 -0.00461393364034555 0.765278684593611 -0.012075518372407 0.0266176435825672 0 0.479261412018651
5.98 8.88480750467856 -0.00147509953725512 -9.31267227914958 -0.00231452238776986 0.725824116468696 -0.00998134989489235 0.0230346929109876 0 0.479446976132394
5.99 8.85944610193252 0.0146231101144398 -9.19034280210563 -0.00596446135683912 0.674417902675455 -0.0135353431820424 0.0196623254160562 0 0.479597115253244
6 9.01789035310596 0.0269184266366369 -9.11005511155987 -0.00511008346471692 0.630527829746419 -0.0120594063566474 0.0165038575220644 0 0.47971618972773
6.01 9.14298076562692 -0.00908231084369755 -9.02791011044439 -0.00704429855332009 0.583771430451986 -0.0144972893027437 0.0135623398416926 0 0.479808360637889
6.02 9.25719611191015 -0.0659875641340591 -8.93577567475289 -0.0056705145937441 0.536913433558821 -0.0174010400776334 0.0108405642547582 0 0.479877569976591
6.03 9.35499026649156 -0.00954887363523954 -8.91849963302762 -0.00819751982896442 0.498206563412035 -0.0146288177273252 0.00834107106226175 0 0.479927522167185
6.04 9.40377021444071 -0.0235919805829415 -8.70851704165092 -0.00904531113731162 0.446889104552473 -0.0116229139516701 0.0060661560915883 0 0.479961666959219
6.05 9.49880950822665 0.0367972497389192 -8.75307805974957 -0.0104006994521832 0.402774378068458 -0.014315266029108 0.00401787763496537 0 0.479983183725545
6.06 9.54698833292249 0.0230542166788798 -8.64702002933013 -0.0110239720289962 0.356291362520138 -0.0177923247718475 0.00219806311040631 0 0.479994967180451
6.07 9.64081073478986 -0.022470199821018 -8.54560771422523 -0.00746951067978223 0.30561046933048 -0.0147713565935143 0.000608315342302276 0 0.479999614533641
6.08 9.68644377930396 0.0134168763959247 -8.57045626146578 -0.00232381623002609 0.256119941848658 -0.0184447826766733 -0.000749981632513589 0 0.479999414090841
6.09 9.70919767664297 0.041553661884275 -8.58474315523561 -0.00606366984910088 0.200837329789317 -0.0169523627396923 -0.00187565731814351 0 0.479996335308536
6.1 9.74557453382875 -0.0285866790309936 -8.53325290346771 -0.00198304359630092 0.151868170536374 -0.0153790508727864 -0.00276775014753731 0 0.479992020307756
6.11 9.78105295462191 0.00601305640151927 -8.47446188062909 -0.00203328819005077 0.100300857356225 -0.0161171529828587 -0.00342550356976958 0 0.479987776849883
6.12 9.83387421936438 0.000263718871752408 -8.43195082162034 -0.000538295000471891 0.0471581592837316 -0.0145830044766258 -0.00384836289086159 0 0.479984572776105
6.13 9.90039151715634 0.0390397551752461 -8.49791947180917 -0.00556196008345641 0.000303854617209038 -0.0158164134308139 -0.00403597291137694 0 0.47998303191119
6.14 9.78419924283662 0.0261155792604331 -8.52408625154681 -0.000963770363084469 -0.0446715987820526 -0.015755564813077 -0.00398817639281673 0 0.479983431431815
6.15 9.7761779657887 0.0161817318899165 -8.48003560384724 -0.00381723379761009 -0.0953524942498582 -0.0144625789773217 -0.00370501337348098 0 0.479985700699409
6.16 9.76807974324871 0.0389458326899116 -8.46295400777533 0.00165734931069538 -0.143420182840453 -0.0126120633591665 -0.00318672134298129 0 0.479989421557478
6.17 9.80131731561188 0.0399038548322375 -8.52114803911909 0.00489566396530727 -0.198897585071083 -0.0129711039497451 -0.00243373627306208 0 0.479993830093422
6.18 9.72704532437036 -0.0288314657808375 -8.54944193408612 0.0053577235324942 -0.244268271289021 -0.0149381275959909 -0.00144669449087622 0 0.479997819864893
6.19 9.68336178966929 0.0327901585010957 -8.60052347881404 0.000409329474673911 -0.284771734176717 -0.0119508241339671 -0.00022643536941984 0 0.479999946590646
6.2 9.64013978622067 -0.00780316316684373 -8.64618034221952 0.00218624840115364 -0.332296821713198 -0.0102488580686959 0.00122599520147637 0 0.479998434305536
6.21 9.53419287747517 0.0495086323336876 -8.68484106806142 -0.00214754392371505 -0.382435840969864 -0.0103254627863054 0.00290934061130369 0 0.479991182978612
6.22 9.47790589144906 0.066326555078738 -8.76133394533189 -0.000450239819409494 -0.426280105300729 -0.0117988630790127 0.00482212865072849 0 0.47997577759224
6.23 9.48192692831785 0.037384205119077 -8.78949713609595 -0.00495590387286491 -0.476645893905931 -0.0121777050312325 0.00696266602818635 0 0.479949498678538
6.24 9.37920474379967 -0.0133920388333036 -8.89973822295631 -0.00491015151919642 -0.524954077560856 -0.00976014903390993 0.0093290323603615 0 0.479909334307241
6.25 9.25233838751085 -0.104564986656324 -8.98210202797709 -0.00337391228271945 -0.571450581091763 -0.0140343463160588 0.0119190737252909 0 0.479851993516262
6.26 9.14971231652449 -0.0106415565841896 -8.98066736988137 -0.00640245698206929 -0.616610759369997 -0.0188357286821714 0.0147303958758725 0 0.479773921172608
6.27 9.01809618453745 -0.0164222629896937 -9.14561103324339 -0.00548125028575906 -0.65768721273989 -0.013502802426382 0.0177603572199188 0 0.479671314246976
6.28 8.96339118677252 0.00793587295844424 -9.24636834943079 -6.92399546324625e-05 -0.70448886306848 -0.0178133211428319 0.0210060616805312 0 0.479540139480183
6.29 8.77340586110111 0.0107229300923646 -9.30851768730574 0.000786619794032217 -0.748659230720347 -0.0165316721883464 0.0244643515573396 0 0.479376152413612
6.3 8.57821391027011 -0.0674594672930627 -9.45746728858903 -9.88822836867076e-06 -0.792732532870609 -0.0145663873204711 0.028131800515002 0 0.479174917749024
6.31 8.43959574608648 -0.0817300234334307 -9.52542074643842 0.00577166909142861 -0.836912491718345 -0.0148770886014458 0.0320047068301471 0 0.478931830995515
6.32 8.37713919170606 0.00337065127359189 -9.6698745984629 0.00751556704355823 -0.880437759958818 -0.00967941662472335 0.0360790870316183 0 0.478642141352979
6.33 8.20342477161234 -0.00891752194400452 -9.7243754589309 0.00651272173764986 -0.920996047032114 -0.0103390182126355 0.0403506700713076 0 0.478300975772365
6.34 8.0464055195248 0.0327673380003507 -9.82087521460006 0.0026918290201494 -0.962117045516998 -0.00941264028001288 0.0448148921639842 0 0.477903364123261
6.35 7.9006452832796 0.0125402583895652 -9.96961727935716 0.00338582162268719 -1.00037576828341 -0.0168150129636344 0.0494668924342173 0 0.477444265389063
6.36 7.5974647667369 -0.00315288447860422 -10.1044056144916 0.00740171176290192 -1.04607256095315 -0.0149184863734289 0.0543015095067222 0 0.47691859479925
6.37 7.49895138680064 -0.0456237412845475 -10.2006682099064 0.00778932926803035 -1.08123897697825 -0.0171435282748479 0.0593132791731196 0 0.476321251797284
6.38 7.32090165496254 -0.0134690761776769 -10.3089514987731 0.0060306221261384 -1.12266358311428 -0.0190666868774319 0.0644964332631706 0 0.47564714873142
6.39 7.02343009822019 0.0282501924997317 -10.4844658840078 0.00649205349064998 -1.1590392843795 -0.0179750593547305 0.0698448998419619 0 0.47489124014459
6.4 6.88651208491267 0.0327228748335361 -10.6190993304535 0.00291117727146189 -1.19180390797978 -0.0177759310525192 0.0753523048462981 0 0.474048552528484
6.41 6.65133129730973 0.00701478574608722 -10.7083966931176 0.000545266801484299 -1.2264582626167 -0.0167367292353624 0.0810119752636587 0 0.473114214396355
6.42 6.45542994925897 -0.0236450460402639 -10.8333016726027 -0.00297769564896166 -1.2590002707752 -0.0121090638382886 0.0868169439455731 0 0.472083486519017
6.43 6.20119776502664 -0.0197312602253229 -11.0206740456584 -0.00235878142778644 -1.28893412079469 -0.0168023472028301 0.0927599561341583 0 0.470951792159228
6.44 5.89792260873156 -0.0365017903371976 -11.0591241958764 -0.000564264301287065 -1.32017461533988 -0.0187619695008807 0.0988334777659888 0 0.469714747131362
6.45 5.63366315623168 0.0591137974168497 -11.1278134134772 0.000579926715768793 -1.34887052861732 -0.0202705579995313 0.105029705601465 0 0.468368189506151
6.46 5.42706304420261 0.0256892449038334 -11.268021085133 0.000216206430585638 -1.37630167020494 -0.0130853318931301 0.111340579210595 0 0.46690820877454
6.47 5.16328209248851 -0.0668347443887576 -11.3910708946606 -0.00466928982319259 -1.40282167760017 -0.0152728286730427 0.117757794827761 0 0.465331174280536
6.48 4.94609820741632 -0.0253645627850333 -11.5289430398224 -0.0010935000233917 -1.4283211188255 -0.0155995874266332 0.124272821068738 0 0.463633762730474
6.49 4.63264903286849 0.00650918325773751 -11.606936812006 -0.00611502433579096 -1.44621702112852 -0.0140123213946039 0.130876916483271 0 0.461812984585569
6.5 4.38581480110695 0.0484975224103054 -11.695276758628 -0.000746979776059583 -1.47066507914627 -0.0165307084420938 0.137561148896057 0 0.459866209146092
6.51 4.06095391523558 0.026863901480621 -11.8376162964808 4.13870640072348e-05 -1.49222093702115 -0.0155883487702964 0.144316416468289 0 0.457791188139037
6.52 3.89823338642559 0.00850258680488434 -11.896443984103 -0.00373259372764169 -1.51337580535259 -0.0145694949006007 0.151133470391309 0 0.455586077626917
6.53 3.54598876702772 -0.0550200422760709 -11.9746548573379 -0.00214864659889144 -1.53488381948067 -0.0119683342567517 0.158002939103612 0 0.453249458063239
6.54 3.19282437799944 -0.00257836141922558 -11.9940556657835 -0.00785028079720468 -1.54782419251796 -0.0113990687996246 0.164915353902774 0 0.450780352330404
6.55 2.85385250243953 0.00257945672604944 -12.1299559704851 -0.00319761267821938 -1.55991991114334 -0.00836157488354152 0.171861175805148 0 0.448178241608037
6.56 2.52325057684704 -0.0480205560103788 -12.1716134761349 -0.00638166095934239 -1.57193455156695 -0.0151150479994368 0.178830823488584 0 0.445443078934217
6.57 2.2491825273456 -0.0349838942637381 -12.3191285137712 -0.00673972211301556 -1.58880463000847 -0.014397299761277 0.185814702137387 0 0.442575300338365
6.58 2.02743905230323 -0.00897197778509666 -12.2391935709843 -0.00350738352742966 -1.59893120511841 -0.0115427294183908 0.192803232994431 0 0.439575833442758
6.59 1.65499805595934 0.01301596837543 -12.3058967455271 -0.00792967825097577 -1.60747370707191 -0.011885654608952 0.199786883412989 0 0.436446103449354
6.6 1.28384149081951 -0.00367804660216309 -12.4153737313304 -0.00867589254701207 -1.61236929939787 -0.0136274547023605 0.20675619719072 0 0.433188036449799
6.61 1.02432297521862 0.0450061685919979 -12.4450115990718 -0.0160355652098463 -1.6247236076145 -0.0152150558430047 0.21370182496061 0 0.429804060018638
6.62 0.683557858084898 -0.00600791531282596 -12.4561470195116 -0.0158591254679722 -1.62546427937479 -0.0112919952622756 0.220614554408458 0 0.426297101072899
6.63 0.444353754992144 0.0381654023260329 -12.5063330235372 -0.0143137498540933 -1.62986220645645 -0.0117937298651352 0.227485340083994 0 0.422670581004722
6.64 0.149652162746751 -0.010637623926684 -12.4409896807236 -0.0159357973905009 -1.62900699070585 -0.0126928447595266 0.234305332572977 0 0.418928408117505
6.65 -0.140441754475012 -0.0284404431452918 -12.3840790212126 -0.019986268189745 -1.62866677928089 -0.010143339165378 0.241065906800611 0 0.415074967419621
6.66 -0.52855255823956 0.0138038029549196 -12.4106438409464 -0.0187271416866352 -1.6266332161268 -0.0128761410676531 0.247758689242334 0 0.411115107852923
6.67 -0.892618677619613 0.0293038855191325 -12.4974774760155 -0.014740862129607 -1.61981683946721 -0.0133584304763887 0.254375583826473 0 0.407054127055532
6.68 -1.21126170084637 0.0430360003841663 -12.361862371899 -0.0145300023092619 -1.61928305151872 -0.0192795007530098 0.260908796324156 0 0.402897753779641
6.69 -1.45606952518109 0.00440648566452045 -12.3340176597599 -0.0178383702156492 -1.60877053750276 -0.0183252838937114 0.267350857035323 0 0.39865212810479
6.7 -1.83651021108849 0.0661964235441778 -12.2569930938147 -0.0217600043433693 -1.60165314050201 -0.0178563458864936 0.273694641595185 0 0.39432377960514
6.71 -2.0618550071196 -0.0340691485673339 -12.234898754688 -0.0217373630191468 -1.58939073654019 -0.0143201226963867 0.279933389743079 0 0.389919603645353
6.72 -2.39786981900255 0.0120394449196379 -12.198287370392 -0.0186930935896052 -1.57864875082527 -0.0143629771547823 0.286060721914974 0 0.385446835993609
6.73 -2.73481783767442 -0.000655928664753059 -12.1812862103542 -0.0151434631557056 -1.56449633654024 -0.010814143292874 0.292070653541567 0 0.38091302595186
6.74 -3.02810290906963 0.00413379326145849 -12.1274593045068 -0.00991273681914799 -1.54770681053427 -0.00838047033544009 0.297957606955789 0 0.376326008212533
6.75 -3.3371438649698 -0.0118162571502888 -11.9990680346176 -0.0120070927013583 -1.52960753824047 -0.0108395131584752 0.303716420836241 0 0.371693873657373
6.76 -3.60013997950416 0.0377072529476575 -12.0021349790856 -0.0126249440673946 -1.51161218774117 -0.0084923250803079 0.30934235713623 0 0.367024939318027
6.77 -3.91378988029861 -0.0239464597779079 -11.8422044230332 -0.0124203279976525 -1.49387279287503 -0.0163986485495153 0.314831105471426 0 0.362327717719249
6.78 -4.22755361558585 -0.0651517076743282 -11.7492345729859 -0.0114804327421621 -1.47214198430597 -0.0182089937007637 0.320178784962349 0 0.357610885824291
6.79 -4.50919121074067 0.0188568602531166 -11.6897074416049 -0.0135524853725633 -1.45604371616111 -0.0131576657629067 0.325381943550639 0 0.352883253798205
6.8 -4.74547064791287 -0.0528181484587492 -11.5142163938504 -0.0119570713493293 -1.4386707283684 -0.0159499532031519 0.33043755483005 0 0.348153733798645
6.81 -5.03478929573439 0.0384074132173174 -11.4422310586179 -0.0142788286383722 -1.41560850458257 -0.0138815892862129 0.335343012454096 0 0.343431308995281
6.82 -5.2312793186395 0.0136682090781698 -11.326505709027 -0.0149953310001078 -1.38479571856786 -0.013197684512128 0.340096122202022 0 0.338725003008558
6.83 -5.51975330355622 0.00655654675794954 -11.2956887786022 -0.0138193321073426 -1.36123879701345 -0.0117889779236143 0.344695091803056 0 0.334043849946205
6.84 -5.78924646839447 -0.0706816998369702 -11.1626105695357 -0.00941830894531042 -1.33386852164958 -0.0149129288831863 0.349138518635551 0 0.329396865202104
6.85 -6.09768023287948 -0.00691285808958825 -11.0408214412571 -0.0101008355338187 -1.30407077844904 -0.0138173794708798 0.353425375432512 0 0.324793017166915
6.86 -6.29339476209051 0.0497043747844235 -10.914221997421 -0.0059748993374585 -1.26901058258876 -0.00887879023726253 0.357554994138033 0 0.320241199983623
6.87 -6.50015014474718 0.00560190903247213 -10.8024318040952 -0.00920975058889691 -1.23886421920534 -0.011394715509157 0.361527048070214 0 0.315750207464124
6.88 -6.72024331558442 -0.0305188380744621 -10.6552334673844 -0.00227882294308751 -1.20624399018342 -0.00466057282567063 0.365341532555257 0 0.311328708265357
6.89 -6.95386500822677 -0.0302959971575272 -10.547722531805 -0.00471322642080976 -1.17170041797684 -0.00832519169284409 0.36899874420454 0 0.306985222405692
6.9 -7.17336513175842 0.0103329800908282 -10.3860223266 -0.00565698548474035 -1.13425469317188 -0.0081729753175415 0.372499259011649 0 0.302728099184355
6.91 -7.32856705817562 0.00778413467531765 -10.2823696183555 -0.00689738069724475 -1.09398959422631 -0.0106430155574157 0.375843909449656 0 0.29856549654908
6.92 -7.54363468237923 0.0133946446724596 -10.2195706400551 -0.00562577542376412 -1.06221939388902 -0.0144193483441583 0.379033760750418 0 0.294505361939974
6.93 -7.79647606530101 0.00303795854912772 -10.0668278267635 -0.00650268545133209 -1.02200620948894 -0.00856495184240562 0.382070086547467 0 0.290555414621051
6.94 -7.96365111611275 0.0345829681847334 -9.8971751731306 -0.0089866425854467 -0.983274611586506 -0.00443130158108223 0.384954344062333 0 0.286723129495231
6.95 -8.09177801092128 -0.0316539522560172 -9.7620091958451 -0.0106741256230976 -0.939870828141587 -0.0111468038103568 0.387688149010917 0 0.283015722383915
6.96 -8.29493719449145 0.0174176217697541 -9.70782829637172 -0.0100078737919167 -0.902887324824082 -0.00924816286147202 0.390273250402118 0 0.279440136738741
6.97 -8.29451564537011 -0.0046524652690806 -9.63581359899734 -0.0111825966546093 -0.855764380743919 -0.00794278966178597 0.392711505395311 0 0.276003031740864
6.98 -8.49444019413709 -0.023033648129586 -9.48963777121237 -0.0155509356825344 -0.815322518445629 -0.00959586122575077 0.395004854376779 0 0.272710771732214
6.99 -8.67939695298899 0.0118687190161197 -9.36071286854648 -0.0146294937176121 -0.771916300793909 -0.0117647228141945 0.397155296407854 0 0.269569416913696
7 -8.87584190706631 0.0362987598968182 -9.31370312326676 -0.010826984996803 -0.725991975091468 -0.0094086863257025 0.399164865189606 0 0.266584715237321
7.01 -8.91863638333605 -0.0150768826765173 -9.2004144123971 -0.00660985828597234 -0.683373306002956 -0.0102112164749674 0.401035605680459 0 0.263762095412717
7.02 -9.02834073361388 0.025487447125711 -9.14334820529042 0.0026394629302954 -0.636706611257022 -0.0121098543369692 0.402769551494339 0 0.261106660943472
7.03 -9.15609532978054 -0.0263965439900068 -9.00617347447061 -0.00370297864790401 -0.594762032536573 -0.00874572013533748 0.404368703197999 0 0.25862318510522
7.04 -9.26337234098701 -0.0230089511381381 -8.94839162757541 -0.00526809714136594 -0.552412169452621 -0.00980258749836632 0.405835007617069 0 0.256316106775312
7.05 -9.34424608878419 0.0316291354843697 -8.89691343488053 -0.00851946577069176 -0.504423266576561 -0.0107752716997805 0.407170338251337 0 0.254189527023228
7.06 -9.4246404596319 0.0356650148276342 -8.8389984228615 -0.0110949443189682 -0.455133298941976 -0.0125892409624872 0.408376476890801 0 0.252247206371562
7.07 -9.58396767673307 0.00584061954565598 -8.7294113788013 -0.013866469327349 -0.410576922091552 -0.0131564073617864 0.409455096515301 0 0.250492562639383
7.08 -9.60096978379901 0.0461473499448518 -8.71836824238304 -0.0169749100142259 -0.362598225808921 -0.0139024789926621 0.410407745551968 0 0.248928669282891
7.09 -9.6170009865294 -0.0199366857869893 -8.58967885911302 -0.00827239205419796 -0.316162043029078 -0.00939943592555625 0.411235833556513 0 0.247558254152593
7.1 -9.69415753168446 0.052846655886155 -8.64448195603751 -0.00809848516239715 -0.269993518980294 -0.00992840431481978 0.411940618376451 0 0.2463836985915
7.11 -9.75908130395942 -0.0707055974150425 -8.60082054542697 -0.00673959254217886 -0.214640101797632 -0.0103648817926886 0.412523194846739 0 0.245407036805059
7.12 -9.80221082192416 0.00658725193118166 -8.53091733066662 -0.00273456611143379 -0.167985806198937 -0.00925497193169821 0.412984485061038 0 0.244629955440599
7.13 -9.78709859633149 0.0176249008892486 -8.52514652278502 -0.00610300549561478 -0.116974786595841 -0.0150500787428193 0.413325230254853 0 0.244053793321827
7.14 -9.69001562387618 -0.0235348246017696 -8.50465798851869 -0.00646986028854372 -0.0718818452148335 -0.0137938906617125 0.41354598433012 0 0.243679541292313
7.15 -9.80370538788624 -0.106728234211736 -8.44548195288999 -0.011731641353283 -0.0225310568698876 -0.0117626611129986 0.413647109044406 0 0.243507842130813
7.16 -9.76832502736623 -0.0794661061706151 -8.45592295814404 -0.0153271251347748 0.0326725019434651 -0.0117064901695012 0.413628770881673 0 0.243538990510589
7.17 -9.72756148491413 0.0990547271697037 -8.52702338124691 -0.0163181024273336 0.0748346187172076 -0.0075645146730704 0.413490939615514 0 0.243772932984529
7.18 -9.79670867232024 0.0440151439290791 -8.44281449297553 -0.0176382239770111 0.127679378859145 -0.00855248511703498 0.413233388569857 0 0.244209267987669
7.19 -9.79042007027519 -0.0531441633858384 -8.53174340998851 -0.0127083756270834 0.174744954069294 -0.00836261644783709 0.412855696576218 0 0.244847245858649
7.2 -9.73910091809346 0.0133883340188639 -8.59985824755173 -0.00895492856678112 0.219080945864372 -0.00774851089203529 0.412357251620715 0 0.245685768891506
7.21 -9.74016802559617 -0.0187038193354563 -8.64458351405374 -0.00916783897450764 0.270385594831054 -0.00501161967243417 0.411737256168093 0 0.246723391439017
7.22 -9.69761394423957 0.0544658443093862 -8.65093095980536 -0.012649981959924 0.316436373820366 -0.00657762819348902 0.410994734143915 0 0.247958320098303
7.23 -9.56354731237295 -0.0293187577734801 -8.73741911885592 -0.0144733603726682 0.366663391652225 -0.00872179988813559 0.410128539549818 0 0.249388414018642
7.24 -9.55259803918535 0.0379819346375696 -8.74538851238691 -0.0129828677683558 0.411834236145596 -0.0113100978066467 0.40913736668023 0 0.251011185380188
7.25 -9.42218170663037 -0.0460034881929867 -8.852082360185 -0.00883235243588388 0.466632640780281 -0.00893708763400346 0.408019761902206 0 0.252823800100519
7.26 -9.33277265364705 -0.0624730275270735 -8.86765629336999 -0.013018525428549 0.512000304150402 -0.00961220441770777 0.406774136952964 0 0.254823078833474
7.27 -9.22243900939317 0.00493770303001709 -8.92360515072752 -0.0146921312039736 0.55487242772404 -0.00991513461811666 0.405398783702339 0 0.257005498331581
7.28 -9.17498458702299 -0.0551144053176682 -9.10965120410587 -0.0162188469226092 0.602547678111314 -0.00506223196667871 0.403891890319663 0 0.25936719324928
7.29 -9.0308858831798 0.0404713454227942 -9.12029909943378 -0.0125862780152745 0.644467702020378 -0.00102745788574111 0.402251558776563 0 0.261903958469178
7.3 -8.90845257540501 0.0035404653081408 -9.1890893455011 -0.0148574021064192 0.689685837021578 -0.00344355698056638 0.400475823608824 0 0.264611252037463
7.31 -8.81326392834423 0.00589421607013028 -9.36954196784565 -0.0159216821892991 0.733070157969598 -0.00979576029571781 0.39856267185186 0 0.267484198797437
7.32 -8.6036976569127 0.00578274099915822 -9.44558486428484 -0.0144750083820766 0.775697039300679 -0.0121730416872457 0.396510064055512 0 0.270517594811675
7.33 -8.55758614515415 -0.019336365326023 -9.56725414885442 -0.0143176819960758 0.817523111890335 -0.0144721713880468 0.394315956274908 0 0.273705912663582
7.34 -8.37210000062952 -0.0133574008132985 -9.63609968577876 -0.0141464362380466 0.86122453599763 -0.00797633786560193 0.391978322925015 0 0.277043307728039
7.35 -8.21033051893919 0.0446776499785686 -9.7932812414226 -0.017240685220056 0.9047476367879 -0.00805374778334895 0.389495180377501 0 0.280523625498277
7.36 -8.04905426859183 -0.0252773584361493 -9.9084771344189 -0.0112784091357659 0.946695208876594 -0.0100674399996829 0.386864611169574 0 0.284140410052168
7.37 -7.81538316645779 0.00653029690280642 -9.94870534576144 -0.0172919972481493 0.985730669770224 -0.0141882515320083 0.384084788685753 0 0.28788691373562
7.38 -7.66827219796318 -0.000432778870763375 -10.068682497546 -0.0169413703796952 1.02192395172205 -0.0100829751343602 0.381154002165282 0 0.291756108133811
7.39 -7.52840051417797 -0.0230569151677342 -10.1789893828163 -0.0216320990674849 1.05929416777288 -0.0101208522155222 0.378070681880068 0 0.295740696392533
7.4 -7.31610126427091 -0.0383931520926687 -10.3835489141424 -0.0279521294556802 1.09369120146862 -0.0116127045866379 0.374833424320979 0 0.299833126941986
7.41 -7.06648549897054 0.0402542437471542 -10.4361689169484 -0.0208934073402051 1.12924484771921 -0.0126701528080528 0.371441017224052 0 0.304025608664075
7.42 -6.80990654796128 0.0166367353861139 -10.5937845860417 -0.0217376114055789 1.17064667294486 -0.0102126481786378 0.367892464262948 0 0.308310127531574
7.43 -6.71151601925656 0.0551880068582074 -10.7075982889875 -0.0151819499751578 1.21002913466937 -0.0102930831772665 0.364187009229881 0 0.312678464733653
7.44 -6.41158912550534 0.0100312278225553 -10.8068855975567 -0.0177022997563224 1.24077511046133 -0.00762723927342081 0.360324159524518 0 0.317122216287269
7.45 -6.23982089467368 -0.0485966706545313 -10.8892778681895 -0.0183137629090446 1.2681090493278 -0.00869601504833486 0.356303708769014 0 0.321632814117971
7.46 -5.92765154868332 -0.076010992644262 -11.0777781876089 -0.0177513714553433 1.29452467347969 -0.00591678927063176 0.352125758367702 0 0.326201548576905
7.47 -5.68279584375109 0.0133080482280557 -11.1894985225748 -0.0133432575125814 1.32976107110406 -0.00328378698496735 0.347790737831957 0 0.330819592343475
7.48 -5.48074575683374 0.00854605634706678 -11.3031885643436 -0.0173796700404093 1.35504687430483 -0.0082791267838347 0.343299423694649 0 0.335478025645379
7.49 -5.13202022130706 -0.0188616118563385 -11.4438903854479 -0.0178814528555287 1.38637539783517 -0.00147165368890331 0.33865295684435 0 0.340167862709837
7.5 -4.91117987933062 0.0289040667098353 -11.4828012711481 -0.01338613618672 1.4086183876934 -0.00469512775831873 0.333852858117196 0 0.344880079342051
7.51 -4.60979670843285 0.0336937687533138 -11.649044342162 -0.0149029456767717 1.43507894944016 -0.00386243304096013 0.328901041994006 0 0.349605641509483
7.52 -4.36486301555056 -0.0510095910154894 -11.7469179878605 -0.0108941587154053 1.45921155257499 -0.00723929267454701 0.323799828261941 0 0.3543355347937
7.53 -4.12119564497447 -0.101614979113524 -11.7548913219592 -0.0103402454885563 1.48000881820568 -0.00189257649790242 0.318551951513582 0 0.359060794555585
7.54 -3.8504961607213 0.018103251748431 -11.8279271239415 -0.0117227941962041 1.49656961674104 -0.00702790556249603 0.313160568371739 0 0.363772536644933
7.55 -3.51347428937404 -0.0318503628704484 -11.9182408491942 -0.0157243029881047 1.51202121881219 -0.00795583559634137 0.30762926234549 0 0.36846198847204
7.56 -3.26125490238325 -0.0706669277991348 -12.0566069625312 -0.0131688731362811 1.53133944468669 -0.00151475053402473 0.301962046241701 0 0.373120520247178
7.57 -2.94041808250492 0.0644520414031484 -12.1360446941607 -0.0101019441160063 1.54884151362139 -0.00261319611850161 0.296163362076407 0 0.377739676184008
7.58 -2.66518705881697 -0.0458578747744759 -12.2099287413317 -0.0111365637380618 1.56132141937104 -0.00264711149156223 0.290238078451786 0 0.382311205455209
7.59 -2.36728543356419 0.0132888814421715 -12.2304019436001 -0.00803751991348003 1.57759704766387 -0.00470124295386019 0.284191485386669 0 0.386827092683176
7.6 -2.06514743132961 -0.0181285620415573 -12.2846696276503 -0.0117632777297838 1.5901909359732 -0.00553730632676247 0.278029286611485 0 0.391279587745526
7.61 -1.78454246258271 -0.0149278755210057 -12.3321042939309 -0.0153354770734608 1.59420833188811 -0.00955584400113643 0.271757589361768 0 0.395661234674666
7.62 -1.39247911549633 -0.0515844468963699 -12.3685589539239 -0.0118443467890597 1.6044318964847 -0.0066442623342176 0.265382891727718 0 0.399964899432731
7.63 -1.10261841914491 -0.0369110629548935 -12.3887791744178 -0.00678399061500946 1.60595903575246 -0.0135345429816532 0.258912067640317 0 0.404183796347919
